# KAPUTNIK Flight Data v5
# Sample rate: 500 Hz
# Samples: 15746
# Accel range: +/-16 g
# Gyro range: +/-2000 dps
# Epoch start: 1776861191153
epoch_us,ax,ay,az,gx,gy,gz,gp14,mx,my,mz,mag_valid
1776861191153394,-2029,3,-165,-129,14,17,0,0,0,0,0
1776861191155001,-2029,1,-157,-129,13,18,0,0,0,0,0
1776861191157000,-2026,3,-164,-128,17,19,0,0,0,0,0
1776861191159000,-2025,-1,-151,-129,25,17,0,0,0,0,0
1776861191161000,-2031,4,-155,-130,29,15,0,0,0,0,0
1776861191163000,-2027,5,-160,-128,31,14,0,0,0,0,0
1776861191165000,-2030,1,-150,-129,32,13,0,0,0,0,0
1776861191167000,-2034,-3,-146,-131,30,12,0,0,0,0,0
1776861191169002,-2027,-8,-152,-131,28,11,0,0,0,0,0
1776861191171002,-2022,-6,-160,-130,29,13,0,0,0,0,0
1776861191173002,-2021,-4,-169,-129,31,16,85,284,-1024,-4617,255
1776865477666019,-2,11,0,0,0,0,38,292,1280,-2312,255
1776865477862630,10,11,0,0,0,0,246,299,1280,2552,0
1776865477928144,27,15,0,0,0,0,198,307,1024,5880,0
1776865477862580,40,18,0,0,0,0,150,315,2048,5880,0
1776865477862559,40,19,0,0,0,0,101,323,2560,2040,0
1776865477665956,26,18,0,0,0,0,53,331,3840,248,0
1776865477600465,7,16,0,0,0,0,5,339,4096,-1800,255
1776865477534961,2,15,0,0,0,0,213,346,3072,-1544,255
1776865477797106,19,16,0,0,0,0,165,354,3840,248,0
1776865477928141,45,17,0,0,0,0,119,362,4096,2552,0
1776865477993650,59,19,29255,1,-2029,9,46,-32257,13055,5376,0
1776861191153000,0,0,31253,1,-2029,6,53,-32513,7423,5376,0
1776861191153000,0,0,-32283,1,-2025,0,85,32511,3327,4608,0
1776861191153000,0,0,-30281,1,-2027,-9,107,32511,1535,4352,0
1776861191153000,0,0,-28281,1,-2027,-8,116,-32513,2303,4352,0
1776861191153000,0,0,-26281,1,-2024,4,109,-32257,5887,4352,0
1776861191153000,0,0,-24281,1,-2029,9,92,-32001,8959,4096,0
1776861191153000,0,0,-22282,1,-2030,13,76,-32257,9983,3328,0
1776861191153000,0,0,-20282,1,-2028,8,67,32511,7935,3584,0
1776861191153000,0,0,-18282,1,-2016,-7,87,31999,5119,4352,0
1776861191153000,0,0,-16282,1,-2001,-12,98,32511,3839,4864,0
1776861191269789,-1995,-15,-149,-130,18,22,0,0,0,0,0
1776861191271789,-1990,-1,-150,-128,27,21,0,0,0,0,0
1776861191273789,-1981,13,-156,-126,34,24,0,0,0,0,0
1776861191275789,-1982,20,-166,-125,33,23,0,0,0,0,0
1776861191277789,-1989,20,-171,-127,29,21,0,0,0,0,0
1776861191279791,-1996,11,-159,-130,21,18,0,0,0,0,0
1776861191281791,-2005,9,-147,-132,16,13,0,0,0,0,0
1776861191283791,-2012,4,-154,-130,20,12,0,0,0,0,0
1776861191285791,-2023,-2,-157,-128,29,10,0,0,0,0,0
1776861191287791,-2018,0,-177,-126,36,9,0,0,0,0,0
1776861191289790,-2019,-2,-185,-127,34,10,37,542,6912,248,0
1776865477731504,25,11,0,0,0,0,247,549,6912,-776,255
1776865477731519,13,11,0,0,0,0,199,557,5632,-1288,255
1776865477731521,9,11,0,0,0,0,151,565,2304,1272,0
1776865477731523,17,15,0,0,0,0,103,573,512,1272,0
1776865477731509,23,16,0,0,0,0,54,581,256,-8,255
1776865477731503,26,16,0,0,0,0,6,589,-1280,247,0
1776865477731522,22,18,0,0,0,0,213,596,-1536,-521,255
1776865477731538,19,17,0,0,0,0,165,604,256,-776,255
1776865477666012,20,16,0,0,0,0,117,612,2560,-1800,255
1776865477666009,26,14,0,0,0,0,72,620,3328,-776,255
1776865477862608,35,14,29719,2,-2038,4,73,-32001,9727,4096,0
1776861191153000,0,0,31719,2,-2025,3,62,-32257,9727,4864,0
1776861191153000,0,0,-31817,2,-2023,4,71,32767,7679,5376,0
1776861191153000,0,0,-29818,2,-2014,2,91,32255,5119,5120,0
1776861191153000,0,0,-27818,2,-2016,-6,106,32255,3839,4608,0
1776861191153000,0,0,-25818,2,-2016,0,114,-32513,4351,4608,0
1776861191153000,0,0,-23819,2,-2022,7,103,-32001,6911,4608,0
1776861191153000,0,0,-21819,2,-2026,9,84,-32257,9727,4352,0
1776861191153000,0,0,-19819,2,-2028,10,70,32511,9727,4096,0
1776861191153000,0,0,-17819,2,-2028,6,76,32511,6655,3840,0
1776861191153000,0,0,-15819,2,-2030,-3,82,32511,4095,3584,0
1776861191335791,-2025,-4,-161,-129,14,14,0,0,0,0,0
1776861191337791,-2017,-8,-151,-127,20,16,0,0,0,0,0
1776861191339791,-2015,-2,-161,-128,27,17,0,0,0,0,0
1776861191341791,-2008,-4,-176,-129,31,19,0,0,0,0,0
1776861191343791,-2006,4,-181,-129,30,20,0,0,0,0,0
1776861191345790,-1998,3,-172,-130,28,21,0,0,0,0,0
1776861191347790,-1999,6,-170,-129,22,21,0,0,0,0,0
1776861191349790,-1994,4,-159,-129,17,20,0,0,0,0,0
1776861191351790,-2001,3,-151,-129,19,17,0,0,0,0,0
1776861191353790,-2001,6,-161,-129,24,17,0,0,0,0,0
1776861191355790,-2006,2,-167,-128,30,16,245,799,8192,1272,0
1776865477797049,33,14,0,0,0,0,197,807,6912,-8,255
1776865477862584,30,12,0,0,0,0,149,815,6912,248,0
1776865477797061,23,12,0,0,0,0,103,823,6144,248,0
1776865477731525,17,12,0,0,0,0,55,831,5376,-520,255
1776865477666000,16,14,0,0,0,0,7,839,5888,-1032,255
1776865477665984,24,16,0,0,0,0,215,846,6400,248,0
1776865477862583,27,17,0,0,0,0,166,854,5888,1272,0
1776865477797053,27,17,0,0,0,0,118,862,5888,2552,0
1776865477665983,24,15,0,0,0,0,70,870,4096,1784,0
1776865477731532,20,14,0,0,0,0,22,878,3072,1272,0
1776865477797064,23,15,30181,3,-2043,0,103,-32513,6911,3584,0
1776861191153000,0,0,32184,3,-2035,0,95,-32257,7679,3328,0
1776861191153000,0,0,-31353,3,-2034,2,93,-32257,7423,3584,0
1776861191153000,0,0,-29353,3,-2037,1,88,32767,7679,4096,0
1776861191153000,0,0,-27353,3,-2031,-2,79,32767,7679,4352,0
1776861191153000,0,0,-25354,3,-2030,-1,81,32767,6655,4352,0
1776861191153000,0,0,-23354,3,-2027,5,95,32511,6143,4096,0
1776861191153000,0,0,-21354,3,-2021,-2,93,-32513,5887,4608,0
1776861191153000,0,0,-19354,3,-2026,4,89,32767,5887,4608,0
1776861191153000,0,0,-17355,3,-2021,1,91,-32513,6143,4608,0
1776861191153000,0,0,-15355,3,-2026,0,88,-32513,7167,4352,0
1776861191401791,-2026,0,-171,-130,29,18,0,0,0,0,0
1776861191403791,-2031,0,-167,-130,25,16,0,0,0,0,0
1776861191405790,-2027,3,-165,-128,23,13,0,0,0,0,0
1776861191407790,-2030,5,-167,-128,22,13,0,0,0,0,0
1776861191409790,-2030,2,-167,-128,25,15,0,0,0,0,0
1776861191411789,-2026,-1,-169,-126,26,15,0,0,0,0,0
1776861191413789,-2015,4,-172,-126,26,17,0,0,0,0,0
1776861191415789,-2011,11,-167,-127,25,19,0,0,0,0,0
1776861191417789,-2008,7,-164,-129,24,18,0,0,0,0,0
1776861191419789,-2004,5,-153,-131,23,18,0,0,0,0,0
1776861191421792,-2008,6,-151,-131,25,19,199,1057,11264,1784,0
1776865477665991,25,17,0,0,0,0,151,1065,10240,1272,0
1776865477797051,25,14,0,0,0,0,103,1073,9472,2040,0
1776865477731520,27,15,0,0,0,0,55,1081,8192,2040,0
1776865477665983,25,13,0,0,0,0,7,1089,5888,1528,0
1776865477731524,25,13,0,0,0,0,214,1096,6656,1272,0
1776865477797061,26,13,0,0,0,0,166,1104,5888,1016,0
1776865477862594,23,13,0,0,0,0,118,1112,6656,-1032,255
1776865477862591,21,14,0,0,0,0,70,1120,6400,-2312,255
1776865477928132,22,14,0,0,0,0,22,1128,5632,-1544,255
1776865477731529,24,16,0,0,0,0,230,1135,6656,-1288,255
1776865477731526,23,16,30645,4,-2027,-2,101,32767,5887,4352,0
1776861191153000,0,0,32645,4,-2026,-2,96,32767,5887,4608,0
1776861191153000,0,0,-30891,4,-2026,2,99,32767,6143,4352,0
1776861191153000,0,0,-28888,4,-2032,3,101,32767,7423,4096,0
1776861191153000,0,0,-26889,4,-2029,5,89,32767,7935,3840,0
1776861191153000,0,0,-24889,4,-2019,2,83,32255,7679,4096,0
1776861191153000,0,0,-22889,4,-2018,1,95,32767,7423,3840,0
1776861191153000,0,0,-20889,4,-2021,5,90,32767,7423,4096,0
1776861191153000,0,0,-18889,4,-2020,8,89,-32001,7679,4352,0
1776861191153000,0,0,-16889,4,-2022,7,91,-32257,6911,4352,0
1776861191153000,0,0,-14889,4,-2021,3,97,-32513,6655,4352,0
1776861191467790,-2006,-3,-165,-129,23,17,0,0,0,0,0
1776861191469790,-1998,-3,-177,-129,24,17,0,0,0,0,0
1776861191471789,-2004,0,-147,-128,26,16,0,0,0,0,0
1776861191473789,-2016,9,-162,-128,29,13,0,0,0,0,0
1776861191475789,-2034,10,-179,-128,31,13,0,0,0,0,0
1776861191477789,-2049,8,-170,-127,28,13,0,0,0,0,0
1776861191479789,-2062,-1,-181,-128,24,13,0,0,0,0,0
1776861191481791,-2064,-15,-151,-128,18,13,0,0,0,0,0
1776861191483791,-2068,-20,-154,-129,15,13,0,0,0,0,0
1776861191485791,-2064,-16,-161,-129,18,15,0,0,0,0,0
1776861191487791,-2055,-7,-158,-127,27,16,150,1315,4352,1528,0
1776865477797059,31,17,0,0,0,0,102,1323,9216,2808,0
1776865477797055,28,18,0,0,0,0,54,1331,13568,2552,0
1776865477665985,25,20,0,0,0,0,6,1339,14080,2040,0
1776865477665994,22,22,0,0,0,0,214,1346,11776,2040,0
1776865477600465,22,22,0,0,0,0,165,1354,10240,504,0
1776865477665997,29,22,0,0,0,0,117,1362,7168,1272,0
1776865477731519,35,21,0,0,0,0,72,1370,4352,1528,0
1776865477731514,35,19,0,0,0,0,23,1378,1536,-520,255
1776865477600440,30,18,0,0,0,0,231,1385,0,-1288,255
1776865477600442,24,15,0,0,0,0,183,1393,-1280,-777,255
1776865477665983,22,14,31110,5,-2044,0,93,32767,5887,3840,0
1776861191153000,0,0,-32427,5,-2031,0,88,-32257,6143,3584,0
1776861191153000,0,0,-30427,5,-2017,5,83,-32513,5887,4096,0
1776861191153000,0,0,-28427,5,-2014,5,85,32511,5375,4608,0
1776861191153000,0,0,-26427,5,-2010,7,95,32255,5375,4352,0
1776861191153000,0,0,-24427,5,-2003,6,91,32511,5887,4864,0
1776861191153000,0,0,-22424,5,-2002,4,96,-32513,6399,5120,0
1776861191153000,0,0,-20424,5,-2001,1,98,32767,6655,5120,0
1776861191153000,0,0,-18425,5,-2002,4,96,32767,7167,4352,0
1776861191153000,0,0,-16425,5,-2005,8,92,32767,7935,4352,0
1776861191153000,0,0,-14425,5,-2011,9,84,32767,8191,4352,0
1776861191533790,-2016,12,-168,-128,30,16,0,0,0,0,0
1776861191535790,-2023,7,-170,-128,28,13,0,0,0,0,0
1776861191537790,-2033,1,-173,-128,24,11,0,0,0,0,0
1776861191539789,-2031,-4,-177,-130,23,12,0,0,0,0,0
1776861191541789,-2030,-8,-164,-130,23,13,0,0,0,0,0
1776861191543789,-2025,-3,-170,-130,23,13,0,0,0,0,0
1776861191545792,-2028,-4,-166,-128,23,14,0,0,0,0,0
1776861191547791,-2019,-5,-173,-126,20,15,0,0,0,0,0
1776861191549791,-2017,-3,-172,-129,19,16,0,0,0,0,0
1776861191551791,-2019,-1,-166,-130,19,16,0,0,0,0,0
1776861191553791,-2025,-2,-162,-130,20,17,102,1573,3072,-264,255
1776865477731522,23,16,0,0,0,0,54,1581,512,-1032,255
1776865477797056,26,16,0,0,0,0,5,1589,-3072,-777,255
1776865477862589,28,16,0,0,0,0,213,1596,-3584,-2057,255
1776865477797060,30,16,0,0,0,0,165,1604,-2560,-2313,255
1776865477665988,29,15,0,0,0,0,117,1612,2560,-1800,255
1776865477731524,29,15,0,0,0,0,71,1620,6656,-264,255
1776865477797065,27,18,0,0,0,0,23,1628,7424,-264,255
1776865477797058,24,19,0,0,0,0,231,1635,10240,3576,0
1776865477862599,23,20,0,0,0,0,183,1643,12032,3832,0
1776865477731518,23,20,0,0,0,0,135,1651,12288,3832,0
1776865477731534,26,19,14122,7,-2016,0,90,32767,5631,4096,0
1776861191153000,0,0,16123,7,-2016,3,100,32511,6143,4352,0
1776861191153000,0,0,18123,7,-2011,4,108,32511,6399,4352,0
1776861191153000,0,0,20123,7,-2019,6,109,-32257,7167,4096,0
1776861191153000,0,0,22123,7,-2022,7,87,-32513,8191,4096,0
1776861191153000,0,0,24123,7,-2007,3,90,32767,7935,4096,0
1776861191153000,0,0,26122,7,-1988,-5,95,32767,6911,4096,0
1776861191153000,0,0,28122,7,-1979,-4,97,32767,6911,3584,0
1776861191153000,0,0,30122,7,-1996,7,85,32511,8703,3072,0
1776861191153000,0,0,32125,7,-2036,16,79,32511,10495,2816,0
1776861191153000,0,0,-31412,7,-2070,15,62,32511,9727,3328,0
1776861191647875,-2084,-3,-192,-130,22,14,0,0,0,0,0
1776861191649875,-2089,-21,-164,-131,4,12,0,0,0,0,0
1776861191651875,-2074,-36,-135,-131,-7,10,0,0,0,0,0
1776861191653875,-2056,-33,-125,-130,0,8,0,0,0,0,0
1776861191655875,-2047,-13,-138,-127,21,9,0,0,0,0,0
1776861191657875,-2048,5,-183,-124,42,14,0,0,0,0,0
1776861191659875,-2031,17,-208,-125,48,20,0,0,0,0,0
1776861191661875,-2009,18,-203,-128,32,22,0,0,0,0,0
1776861191663875,-2004,12,-163,-131,7,21,0,0,0,0,0
1776861191665875,-2004,3,-124,-133,-6,19,0,0,0,0,0
1776861191667874,-2006,-3,-107,-131,10,20,10,2019,8704,-776,255
1776865477797091,43,22,0,0,0,0,218,2026,6400,1272,0
1776865477928121,65,22,0,0,0,0,172,2034,4352,2808,0
1776865477928090,60,21,0,0,0,0,124,2042,5632,2808,0
1776865477797018,41,19,0,0,0,0,76,2050,5120,248,0
1776865477797035,22,16,0,0,0,0,27,2058,4864,248,0
1776865477665979,12,14,0,0,0,0,235,2065,7936,1016,0
1776865477666006,6,15,0,0,0,0,187,2073,11008,1784,0
1776865477797086,6,15,0,0,0,0,138,2081,9216,3320,0
1776865477731535,14,14,0,0,0,0,90,2089,5120,3576,0
1776865477862593,24,13,0,0,0,0,42,2097,4096,2552,0
1776865477797045,31,13,14588,8,-2013,-1,84,32511,7935,3584,0
1776861191153000,0,0,16588,8,-2006,-7,92,32767,5375,4096,0
1776861191153000,0,0,18588,8,-1998,-14,100,-32513,3839,4352,0
1776861191153000,0,0,20588,8,-1996,-13,102,-32001,4607,5632,0
1776861191153000,0,0,22588,8,-2000,1,89,-32257,6911,6400,0
1776861191153000,0,0,24587,8,-1997,11,79,-32257,9983,6144,0
1776861191153000,0,0,26587,8,-1996,17,65,32767,9215,5120,0
1776861191153000,0,0,28587,8,-2005,14,77,32767,6911,4352,0
1776861191153000,0,0,30587,8,-2021,9,92,31999,5119,3584,0
1776861191153000,0,0,32587,8,-2029,3,110,32255,5631,3072,0
1776861191153000,0,0,-30949,8,-2032,-1,103,-32513,7679,3072,0
1776861191713874,-2030,-6,-179,-127,36,12,0,0,0,0,0
1776861191715874,-2030,-5,-188,-128,35,10,0,0,0,0,0
1776861191717874,-2031,-6,-191,-130,25,9,0,0,0,0,0
1776861191719874,-2025,-3,-178,-131,13,11,0,0,0,0,0
1776861191721874,-2031,3,-150,-130,9,14,0,0,0,0,0
1776861191723874,-2044,7,-145,-130,13,18,0,0,0,0,0
1776861191725874,-2052,4,-159,-131,21,19,0,0,0,0,0
1776861191727877,-2055,6,-163,-129,25,19,0,0,0,0,0
1776861191729876,-2055,6,-163,-128,25,18,0,0,0,0,0
1776861191731876,-2058,-3,-167,-128,22,15,0,0,0,0,0
1776861191733876,-2052,-4,-160,-127,21,13,219,2276,512,-2312,255
1776865477862613,25,11,0,0,0,0,171,2284,3584,-1800,255
1776865477993675,31,13,0,0,0,0,123,2292,8704,-8,255
1776865477928120,38,16,0,0,0,0,75,2300,11008,760,0
1776865477862568,39,20,0,0,0,0,27,2308,11008,1528,0
1776865477731491,33,22,0,0,0,0,234,2315,12544,1528,0
1776865477665975,24,21,0,0,0,0,186,2323,11264,2040,0
1776865477731524,17,19,0,0,0,0,138,2331,10752,2040,0
1776865477797068,16,18,0,0,0,0,90,2339,7680,760,0
1776865477731538,19,18,0,0,0,0,42,2347,6400,2040,0
1776865477731534,25,18,0,0,0,0,252,2354,6144,2296,0
1776865477731519,28,16,15052,9,-2033,8,81,32511,7935,3840,0
1776861191153000,0,0,17052,9,-2032,-1,78,32511,7167,2816,0
1776861191153000,0,0,19052,9,-2027,-4,87,31999,6399,2816,0
1776861191153000,0,0,21052,9,-2024,-5,90,31743,6143,3840,0
1776861191153000,0,0,23052,9,-2019,-8,101,32511,6399,4352,0
1776861191153000,0,0,25051,9,-2016,-8,102,32255,6655,4864,0
1776861191153000,0,0,27051,9,-2008,-4,91,32511,7167,5376,0
1776861191153000,0,0,29051,9,-2007,1,83,32767,6911,5888,0
1776861191153000,0,0,31051,9,-1999,8,92,32767,6399,5888,0
1776861191153000,0,0,-32486,9,-2001,11,91,-32513,6399,5632,0
1776861191153000,0,0,-30486,9,-2004,17,98,-32257,7167,4608,0
1776861191779874,-2012,12,-162,-130,28,16,0,0,0,0,0
1776861191781874,-2014,6,-162,-129,30,14,0,0,0,0,0
1776861191783874,-2019,2,-162,-129,30,12,0,0,0,0,0
1776861191785874,-2023,-5,-163,-128,28,10,0,0,0,0,0
1776861191787874,-2024,-4,-165,-129,27,10,0,0,0,0,0
1776861191789874,-2029,-7,-174,-127,24,11,0,0,0,0,0
1776861191791874,-2026,-5,-174,-126,23,13,0,0,0,0,0
1776861191793874,-2023,0,-166,-128,19,13,0,0,0,0,0
1776861191795876,-2022,2,-158,-129,17,16,0,0,0,0,0
1776861191797876,-2029,2,-151,-129,18,17,0,0,0,0,0
1776861191799876,-2037,1,-160,-130,20,16,171,2534,1792,504,0
1776865477731524,21,17,0,0,0,0,123,2542,-512,759,0
1776865477797057,26,17,0,0,0,0,74,2550,-1792,503,0
1776865477797055,29,16,0,0,0,0,26,2558,-1280,-521,255
1776865477797053,29,14,0,0,0,0,234,2565,256,-264,255
1776865477797048,26,15,0,0,0,0,186,2573,1792,248,0
1776865477862589,26,14,0,0,0,0,138,2581,4608,-264,255
1776865477731514,27,16,0,0,0,0,90,2589,6912,760,0
1776865477731526,28,17,0,0,0,0,42,2597,9216,760,0
1776865477928132,26,18,0,0,0,0,253,2604,11776,1272,0
1776865477731527,23,20,0,0,0,0,205,2612,9728,2296,0
1776865477797054,20,19,15516,10,-2013,6,96,-32513,5887,4352,0
1776861191153000,0,0,17516,10,-2015,10,88,32767,7423,4608,0
1776861191153000,0,0,19516,10,-2016,4,75,32511,7935,4352,0
1776861191153000,0,0,21516,10,-2017,-3,83,32767,8191,4352,0
1776861191153000,0,0,23516,10,-2024,-1,86,32255,6911,3584,0
1776861191153000,0,0,25516,10,-2030,-3,93,32767,5887,3328,0
1776861191153000,0,0,27515,10,-2026,-2,100,-32513,6143,4096,0
1776861191153000,0,0,29515,10,-2018,0,94,32767,6655,4608,0
1776861191153000,0,0,31514,10,-2012,0,87,-32257,6911,3840,0
1776861191153000,0,0,-32022,10,-2007,0,87,32767,6911,3840,0
1776861191153000,0,0,-30019,10,-2010,5,84,32511,6399,4352,0
1776861191845876,-2010,4,-162,-130,24,17,0,0,0,0,0
1776861191847876,-2007,3,-158,-130,25,18,0,0,0,0,0
1776861191849876,-2008,4,-170,-128,27,19,0,0,0,0,0
1776861191851875,-2010,3,-167,-130,25,18,0,0,0,0,0
1776861191853875,-2020,9,-156,-130,25,17,0,0,0,0,0
1776861191855875,-2026,5,-163,-128,23,14,0,0,0,0,0
1776861191857875,-2032,-4,-166,-128,23,11,0,0,0,0,0
1776861191859874,-2033,-4,-164,-128,26,11,0,0,0,0,0
1776861191861874,-2029,-6,-178,-129,28,13,0,0,0,0,0
1776861191863874,-2021,-5,-177,-128,26,13,0,0,0,0,0
1776861191865874,-2025,1,-174,-129,26,14,124,2792,6400,-776,255
1776865477600440,23,15,0,0,0,0,76,2800,6912,504,0
1776865477600456,20,17,0,0,0,0,28,2808,6400,1784,0
1776865477797066,20,18,0,0,0,0,236,2815,5888,1272,0
1776865477731530,21,18,0,0,0,0,188,2823,5120,2040,0
1776865477600457,22,18,0,0,0,0,140,2831,3072,2296,0
1776865477665991,24,17,0,0,0,0,92,2839,2816,2040,0
1776865477665989,25,16,0,0,0,0,43,2847,2304,2040,0
1776865477731519,26,15,0,0,0,0,251,2854,512,1016,0
1776865477731523,25,15,0,0,0,0,203,2862,1792,1016,0
1776865477665982,25,14,0,0,0,0,155,2870,2304,248,0
1776865477731518,24,17,15978,11,-2033,-1,95,32511,6399,4864,0
1776861191153000,0,0,17978,11,-2028,7,96,32767,6143,4864,0
1776861191153000,0,0,19978,11,-2024,4,90,32767,5887,4352,0
1776861191153000,0,0,21978,11,-2017,9,94,-32513,5887,4608,0
1776861191153000,0,0,23981,11,-2016,4,87,32767,6399,4608,0
1776861191153000,0,0,25980,11,-2020,-1,97,-32257,6655,4352,0
1776861191153000,0,0,27980,11,-2022,2,86,32767,7167,4608,0
1776861191153000,0,0,29980,11,-2022,-4,86,-32257,6911,4608,0
1776861191153000,0,0,31980,11,-2022,1,86,-32001,6399,4352,0
1776861191153000,0,0,-31557,11,-2027,-1,85,32767,6143,4096,0
1776861191153000,0,0,-29557,11,-2023,1,100,-32513,6911,4352,0
1776861191911874,-2018,1,-175,-128,26,17,0,0,0,0,0
1776861191913874,-2010,0,-165,-129,25,18,0,0,0,0,0
1776861191915876,-2008,-1,-173,-130,24,17,0,0,0,0,0
1776861191917876,-2004,2,-161,-129,24,16,0,0,0,0,0
1776861191919876,-2014,10,-158,-129,24,18,0,0,0,0,0
1776861191921876,-2006,7,-160,-129,24,18,0,0,0,0,0
1776861191923876,-2007,11,-161,-130,26,19,0,0,0,0,0
1776861191925875,-2006,4,-157,-130,26,19,0,0,0,0,0
1776861191927875,-2015,-1,-168,-127,27,15,0,0,0,0,0
1776861191929875,-2025,3,-165,-127,26,14,0,0,0,0,0
1776861191931875,-2028,1,-170,-127,25,13,74,3050,5376,-8,255
1776865477862590,24,13,0,0,0,0,26,3058,5632,760,0
1776865477731520,23,14,0,0,0,0,234,3065,5120,-520,255
1776865477797055,25,16,0,0,0,0,189,3073,5120,-264,255
1776865477862592,27,16,0,0,0,0,138,3081,6144,-1288,255
1776865477797066,26,16,0,0,0,0,92,3089,8192,-1288,255
1776865477666000,24,16,0,0,0,0,44,3097,9728,760,0
1776865477797074,25,16,0,0,0,0,252,3104,12288,1016,0
1776865477731528,29,17,0,0,0,0,204,3112,9984,2040,0
1776865477665982,33,17,0,0,0,0,155,3120,7936,2808,0
1776865477665975,29,15,0,0,0,0,107,3128,6400,2296,0
1776865477534912,28,14,16442,12,-2019,-3,88,32511,6655,3584,0
1776861191153000,0,0,18442,12,-1998,-6,105,32511,5887,3584,0
1776861191153000,0,0,20442,12,-1981,-2,106,-32513,6399,3328,0
1776861191153000,0,0,22445,12,-1997,3,111,-32001,7679,3072,0
1776861191153000,0,0,24445,12,-2034,12,88,-32001,9983,3072,0
1776861191153000,0,0,26444,12,-2061,14,63,-32513,9983,3328,0
1776861191153000,0,0,28444,12,-2080,8,61,32511,7423,3840,0
1776861191153000,0,0,30444,12,-2077,-12,88,32511,2815,3584,0
1776861191153000,0,0,32444,12,-2065,-26,114,32767,-769,2815,0
1776861191153000,0,0,-31092,12,-2057,-31,126,-32001,-769,2559,0
1776861191153000,0,0,-29092,12,-2050,-17,119,-31489,4095,2560,0
1776861192025853,-2002,14,-182,-128,34,18,0,0,0,0,0
1776861192027853,-2006,5,-163,-130,20,16,0,0,0,0,0
1776861192029853,-2014,2,-147,-133,13,12,0,0,0,0,0
1776861192031853,-2022,0,-142,-132,19,13,0,0,0,0,0
1776861192033855,-2024,1,-163,-130,32,14,0,0,0,0,0
1776861192035855,-2021,6,-190,-129,36,16,0,0,0,0,0
1776861192037855,-2019,8,-187,-128,28,16,0,0,0,0,0
1776861192039855,-2025,8,-168,-129,19,13,0,0,0,0,0
1776861192041854,-2035,4,-162,-130,12,13,0,0,0,0,0
1776861192043854,-2039,-4,-152,-128,13,15,0,0,0,0,0
1776861192045853,-2040,0,-151,-127,22,18,135,3495,2560,1016,0
1776865477862593,29,18,0,0,0,0,87,3503,2304,504,0
1776865477862597,29,16,0,0,0,0,39,3511,0,1528,0
1776865477731518,24,15,0,0,0,0,246,3518,-1024,759,0
1776865477665985,23,16,0,0,0,0,198,3526,-256,-9,255
1776865477731535,24,17,0,0,0,0,150,3534,2048,-1288,255
1776865477797077,27,16,0,0,0,0,102,3542,3840,-1800,255
1776865477731525,31,17,0,0,0,0,54,3550,5376,-520,255
1776865477731516,33,18,0,0,0,0,5,3558,6656,-8,255
1776865477665976,32,21,0,0,0,0,213,3565,8448,-1800,255
1776865477731509,29,21,0,0,0,0,165,3573,9984,248,0
1776865477731510,23,18,-649,13,-2005,3,91,32767,4863,4864,0
1776861191153000,0,0,1351,14,-2010,3,96,32255,5375,5120,0
1776861191153000,0,0,3351,14,-2014,3,96,32255,6143,4352,0
1776861191153000,0,0,5351,14,-2018,0,91,32767,7423,3840,0
1776861191153000,0,0,7351,14,-2021,-1,83,-32513,8191,3584,0
1776861191153000,0,0,9350,14,-2022,0,82,32767,7167,3328,0
1776861191153000,0,0,11350,14,-2015,-4,87,32511,5887,3328,0
1776861191153000,0,0,13350,14,-2007,-3,99,-32513,5119,3840,0
1776861191153000,0,0,15350,14,-1995,-1,93,-32513,6399,4096,0
1776861191153000,0,0,17349,14,-1990,0,82,32767,7423,4352,0
1776861191153000,0,0,19349,14,-1994,2,91,-32513,7423,4608,0
1776861192091855,-2002,4,-177,-129,26,20,0,0,0,0,0
1776861192093855,-2008,-1,-178,-129,24,19,0,0,0,0,0
1776861192095855,-2013,-3,-179,-129,23,17,0,0,0,0,0
1776861192097855,-2013,0,-168,-129,20,14,0,0,0,0,0
1776861192099854,-2018,1,-157,-129,19,12,0,0,0,0,0
1776861192101854,-2024,0,-162,-128,24,12,0,0,0,0,0
1776861192103853,-2023,-2,-176,-127,29,12,0,0,0,0,0
1776861192105853,-2006,-3,-174,-130,31,13,0,0,0,0,0
1776861192107853,-1991,-7,-170,-131,28,13,0,0,0,0,0
1776861192109853,-1996,2,-168,-129,21,13,0,0,0,0,0
1776861192111853,-2009,6,-171,-128,21,14,87,3753,3584,3064,0
1776865477665986,26,14,0,0,0,0,39,3761,-768,1783,0
1776865477731514,28,15,0,0,0,0,247,3768,-1536,-265,255
1776865477600444,26,16,0,0,0,0,199,3776,-1280,-3081,255
1776865477665981,20,16,0,0,0,0,151,3784,-2048,-2057,255
1776865477731541,15,13,0,0,0,0,103,3792,-3072,-1033,255
1776865477731545,18,13,0,0,0,0,55,3800,-4352,1015,0
1776865477993666,29,14,0,0,0,0,7,3808,-3072,1271,0
1776865477993649,39,14,0,0,0,0,215,3815,768,1784,0
1776865477797032,36,17,0,0,0,0,167,3823,3584,-8,255
1776865477600436,23,18,0,0,0,0,119,3831,4608,-8,255
1776865477600449,10,17,-186,14,-2033,-4,99,32511,2815,4352,0
1776861191153000,0,0,1814,15,-2033,-1,101,32767,6655,5120,0
1776861191153000,0,0,3814,15,-2025,0,86,-32001,9727,5376,0
1776861191153000,0,0,5814,15,-2022,4,76,-32001,10239,5888,0
1776861191153000,0,0,7814,15,-2025,3,81,-32513,8191,5376,0
1776861191153000,0,0,9814,15,-2020,5,91,32767,5887,4608,0
1776861191153000,0,0,11814,15,-2021,4,104,32767,4607,4352,0
1776861191153000,0,0,13813,15,-2018,-1,102,32511,6143,4352,0
1776861191153000,0,0,15813,15,-2006,1,100,32511,7167,4096,0
1776861191153000,0,0,17815,15,-2007,5,101,32511,7679,3584,0
1776861191153000,0,0,19815,15,-2011,5,97,32767,7679,3840,0
1776861192157854,-2008,6,-169,-128,28,16,0,0,0,0,0
1776861192159854,-2002,7,-170,-129,26,19,0,0,0,0,0
1776861192161854,-1995,0,-176,-130,24,20,0,0,0,0,0
1776861192163853,-1985,-4,-157,-131,20,19,0,0,0,0,0
1776861192165853,-1991,2,-141,-129,20,18,0,0,0,0,0
1776861192167853,-1995,10,-167,-128,24,19,0,0,0,0,0
1776861192169853,-2005,13,-173,-129,31,21,0,0,0,0,0
1776861192171853,-2012,16,-187,-127,32,19,0,0,0,0,0
1776861192173853,-2017,12,-182,-128,24,16,0,0,0,0,0
1776861192175856,-2021,4,-156,-129,16,12,0,0,0,0,0
1776861192177855,-2032,-4,-145,-128,14,10,39,4011,3584,-3080,255
1776865477797079,23,11,0,0,0,0,247,4018,3840,-776,255
1776865477797061,33,13,0,0,0,0,198,4026,4608,248,0
1776865477928114,35,15,0,0,0,0,150,4034,5632,760,0
1776865477862576,27,16,0,0,0,0,102,4042,5120,1272,0
1776865477731507,19,15,0,0,0,0,54,4050,5376,-8,255
1776865477600456,13,16,0,0,0,0,5,4058,4864,-8,255
1776865477665995,15,18,0,0,0,0,213,4065,5120,248,0
1776865477797071,24,19,0,0,0,0,168,4073,3584,248,0
1776865477797060,30,19,0,0,0,0,119,4081,1024,1528,0
1776865477797049,30,18,0,0,0,0,71,4089,512,2552,0
1776865477731518,27,16,278,16,-2052,0,83,32767,6143,3328,0
1776861191153000,0,0,2277,16,-2053,-3,93,32511,6143,3328,0
1776861191153000,0,0,4277,16,-2044,-8,93,32767,6399,3328,0
1776861191153000,0,0,6277,16,-2036,-5,93,32767,6911,3840,0
1776861191153000,0,0,8277,16,-2031,6,81,-32513,7679,4864,0
1776861191153000,0,0,10277,16,-2033,6,79,-32257,7679,4864,0
1776861191153000,0,0,12277,16,-2023,5,77,-32513,6911,4864,0
1776861191153000,0,0,14277,16,-2022,3,85,32511,5375,5120,0
1776861191153000,0,0,16279,16,-2019,5,109,32511,4351,4864,0
1776861191153000,0,0,18279,16,-2019,8,120,-32513,4863,4608,0
1776861191153000,0,0,20279,16,-2019,3,100,-32001,6655,4608,0
1776861192223854,-2021,3,-168,-129,30,17,0,0,0,0,0
1776861192225854,-2020,6,-167,-129,31,16,0,0,0,0,0
1776861192227854,-2024,-5,-174,-129,27,14,0,0,0,0,0
1776861192229854,-2017,-8,-176,-129,23,14,0,0,0,0,0
1776861192231853,-2011,-6,-178,-129,23,18,0,0,0,0,0
1776861192233853,-2004,0,-170,-130,27,20,0,0,0,0,0
1776861192235856,-1998,-2,-165,-130,25,21,0,0,0,0,0
1776861192237856,-1994,-2,-161,-129,24,20,0,0,0,0,0
1776861192239855,-1995,5,-169,-128,24,18,0,0,0,0,0
1776861192241855,-2001,9,-163,-127,23,18,0,0,0,0,0
1776861192243855,-2005,7,-164,-128,22,18,246,4268,10240,760,0
1776865477731527,21,18,0,0,0,0,198,4276,7424,-8,255
1776865477731536,23,16,0,0,0,0,149,4284,6144,248,0
1776865477797063,25,14,0,0,0,0,101,4292,6144,-520,255
1776865477797051,27,13,0,0,0,0,53,4300,5632,-1032,255
1776865477797048,28,13,0,0,0,0,5,4308,5376,-264,255
1776865477797043,27,14,0,0,0,0,213,4315,5376,1784,0
1776865477731516,25,16,0,0,0,0,165,4323,6144,248,0
1776865477665988,23,16,0,0,0,0,119,4331,6912,760,0
1776865477797054,21,17,0,0,0,0,71,4339,7424,-8,255
1776865477665994,23,17,0,0,0,0,23,4347,5888,248,0
1776865477600460,25,18,742,17,-2032,3,102,-32513,7423,4352,0
1776861191153000,0,0,2742,17,-2037,-3,99,32767,7423,3840,0
1776861191153000,0,0,4742,17,-2038,-2,86,32767,7679,3584,0
1776861191153000,0,0,6742,17,-2039,-3,95,32767,7167,3584,0
1776861191153000,0,0,8741,17,-2033,-5,93,32511,6143,3584,0
1776861191153000,0,0,10741,17,-2032,-3,95,32255,6399,3584,0
1776861191153000,0,0,12741,17,-2026,-1,98,32511,6911,3584,0
1776861191153000,0,0,14741,17,-2032,-2,86,32511,7167,3840,0
1776861191153000,0,0,16741,17,-2030,0,88,-32513,6655,4352,0
1776861191153000,0,0,18743,17,-2030,0,84,32767,6399,4352,0
1776861191153000,0,0,20743,17,-2025,2,100,32511,5375,4352,0
1776861192289854,-2025,2,-157,-129,20,16,0,0,0,0,0
1776861192291854,-2025,3,-154,-128,23,16,0,0,0,0,0
1776861192293853,-2026,3,-163,-128,29,15,0,0,0,0,0
1776861192295853,-2028,4,-178,-128,31,16,0,0,0,0,0
1776861192297853,-2027,0,-170,-128,28,16,0,0,0,0,0
1776861192299856,-2025,-7,-163,-128,24,16,0,0,0,0,0
1776861192301855,-2020,-5,-161,-128,24,16,0,0,0,0,0
1776861192303855,-2022,-4,-162,-127,24,18,0,0,0,0,0
1776861192305855,-2016,1,-169,-128,26,21,0,0,0,0,0
1776861192307855,-2006,2,-166,-130,26,20,0,0,0,0,0
1776861192309854,-2008,5,-161,-128,24,18,197,4526,11008,1784,0
1776865477862599,24,19,0,0,0,0,149,4534,11520,1272,0
1776865477862590,25,17,0,0,0,0,101,4542,11520,3064,0
1776865477665985,27,17,0,0,0,0,53,4550,10496,1528,0
1776865477731527,28,15,0,0,0,0,5,4558,8704,1272,0
1776865477731530,27,14,0,0,0,0,215,4565,8448,2040,0
1776865477797062,25,14,0,0,0,0,167,4573,8192,760,0
1776865477731527,26,15,0,0,0,0,119,4581,8704,-1288,255
1776865477731531,27,15,0,0,0,0,71,4589,9216,-776,255
1776865477665984,29,13,0,0,0,0,22,4597,8704,504,0
1776865477665975,29,12,0,0,0,0,230,4604,7168,2040,0
1776865477797048,25,14,1205,18,-2028,6,88,32767,5887,3840,0
1776861191153000,0,0,3205,18,-2025,-2,85,32511,6399,3840,0
1776861191153000,0,0,5205,18,-2017,-6,89,32767,6911,3840,0
1776861191153000,0,0,7205,18,-2004,-10,94,-31745,6655,3584,0
1776861191153000,0,0,9205,18,-2014,3,93,-32513,7167,3328,0
1776861191153000,0,0,11207,18,-2030,10,93,-32513,8191,3328,0
1776861191153000,0,0,13207,18,-2052,11,85,32767,8447,3072,0
1776861191153000,0,0,15207,18,-2064,4,65,32255,7423,3584,0
1776861191153000,0,0,17207,18,-2070,-7,79,32255,5887,3328,0
1776861191153000,0,0,19207,18,-2080,-18,83,32255,3327,3328,0
1776861191153000,0,0,21207,18,-2071,-23,105,32511,3327,3328,0
1776861192355854,-2073,-17,-158,-128,22,14,0,0,0,0,0
1776861192357854,-2057,-5,-165,-128,29,17,0,0,0,0,0
1776861192359854,-2040,2,-182,-126,30,19,0,0,0,0,0
1776861192361854,-2026,3,-175,-128,25,19,0,0,0,0,0
1776861192363854,-2007,10,-159,-129,17,21,0,0,0,0,0
1776861192365854,-2002,8,-152,-131,13,20,0,0,0,0,0
1776861192367854,-2009,3,-143,-129,19,20,0,0,0,0,0
1776861192369854,-2024,5,-159,-128,31,21,0,0,0,0,0
1776861192371854,-2035,0,-184,-128,38,21,0,0,0,0,0
1776861192373853,-2042,-3,-191,-128,37,20,0,0,0,0,0
1776861192375853,-2043,-6,-184,-129,29,17,104,4972,1536,504,0
1776865477797059,22,17,0,0,0,0,56,4980,256,-1032,255
1776865477797058,22,16,0,0,0,0,8,4988,-1536,-1545,255
1776865477665989,27,15,0,0,0,0,216,4995,-2304,-2313,255
1776865477665991,31,14,0,0,0,0,168,5003,-1024,-777,255
1776865477731519,33,15,0,0,0,0,123,5011,1024,760,0
1776865477797055,31,15,0,0,0,0,75,5019,3328,248,0
1776865477731518,27,17,0,0,0,0,26,5027,5376,760,0
1776865477731522,26,18,0,0,0,0,234,5034,7936,248,0
1776865477797053,27,17,0,0,0,0,186,5042,7168,1272,0
1776865477797062,30,19,0,0,0,0,137,5050,7168,-264,255
1776865477797058,28,18,-15784,19,-2018,-3,92,32767,6655,4096,0
1776861191153000,0,0,-13784,19,-2025,-4,89,32767,5631,4352,0
1776861191153000,0,0,-11784,19,-2026,0,88,32767,5631,3840,0
1776861191153000,0,0,-9781,19,-2027,-5,88,32511,6143,3840,0
1776861191153000,0,0,-7782,19,-2017,1,84,32511,6911,4096,0
1776861191153000,0,0,-5782,19,-2021,5,76,-32513,6911,4352,0
1776861191153000,0,0,-3782,19,-2022,4,83,-32513,6655,4352,0
1776861191153000,0,0,-1782,19,-2018,1,95,32767,6143,4096,0
1776861191153000,0,0,217,20,-2010,-3,95,32767,5631,4096,0
1776861191153000,0,0,2217,20,-2009,0,98,32511,6655,4352,0
1776861191153000,0,0,4217,20,-2004,-3,96,32511,7423,4608,0
1776861192469936,-2001,4,-162,-129,29,19,0,0,0,0,0
1776861192471936,-1996,11,-165,-129,28,19,0,0,0,0,0
1776861192473936,-2001,9,-168,-130,26,18,0,0,0,0,0
1776861192475936,-2004,2,-167,-131,26,19,0,0,0,0,0
1776861192477936,-2010,6,-172,-130,25,17,0,0,0,0,0
1776861192479936,-2016,6,-171,-130,25,16,0,0,0,0,0
1776861192481936,-2020,1,-162,-129,26,15,0,0,0,0,0
1776861192483936,-2025,-3,-165,-127,29,14,0,0,0,0,0
1776861192485936,-2028,-1,-170,-128,28,14,0,0,0,0,0
1776861192487936,-2023,-5,-170,-129,26,15,0,0,0,0,0
1776861192489936,-2024,-3,-164,-128,24,14,58,5230,6656,504,0
1776865477862593,22,14,0,0,0,0,10,5238,5888,504,0
1776865477862588,22,17,0,0,0,0,218,5245,5376,760,0
1776865477797048,23,18,0,0,0,0,169,5253,3840,1272,0
1776865477797056,24,17,0,0,0,0,121,5261,2560,1016,0
1776865477731521,22,15,0,0,0,0,73,5269,256,1016,0
1776865477731526,23,16,0,0,0,0,25,5277,-1024,1271,0
1776865477665994,26,15,0,0,0,0,233,5284,-1536,247,0
1776865477731528,26,15,0,0,0,0,184,5292,-1024,759,0
1776865477862587,25,16,0,0,0,0,136,5300,1792,504,0
1776865477665980,26,16,0,0,0,0,88,5308,1280,1272,0
1776865477797051,27,17,-15318,20,-2037,1,93,-32513,6911,4352,0
1776861191153000,0,0,-13318,20,-2030,5,89,-32513,6143,4864,0
1776861191153000,0,0,-11318,20,-2027,5,93,-32513,5887,4864,0
1776861191153000,0,0,-9318,20,-2022,6,100,-32513,6143,4608,0
1776861191153000,0,0,-7318,20,-2020,2,97,-32257,6655,4864,0
1776861191153000,0,0,-5319,20,-2017,0,98,-32257,6655,4864,0
1776861191153000,0,0,-3319,20,-2024,4,99,-32513,6911,4096,0
1776861191153000,0,0,-1319,20,-2024,4,92,-32001,6655,3840,0
1776861191153000,0,0,680,21,-2024,0,86,-32257,6911,4352,0
1776861191153000,0,0,2680,21,-2022,0,94,-32257,6143,4096,0
1776861191153000,0,0,4682,21,-2020,3,94,-32257,6399,4352,0
1776861192535938,-2011,0,-168,-128,25,18,0,0,0,0,0
1776861192537938,-2009,6,-164,-126,24,19,0,0,0,0,0
1776861192539937,-2008,4,-163,-129,25,20,0,0,0,0,0
1776861192541937,-2004,9,-152,-130,27,18,0,0,0,0,0
1776861192543937,-2001,12,-168,-128,27,19,0,0,0,0,0
1776861192545937,-2005,4,-176,-127,25,17,0,0,0,0,0
1776861192547937,-2005,2,-169,-129,24,16,0,0,0,0,0
1776861192549936,-2010,5,-167,-128,24,16,0,0,0,0,0
1776861192551936,-2011,12,-162,-128,24,15,0,0,0,0,0
1776861192553936,-2015,7,-162,-129,25,15,0,0,0,0,0
1776861192555936,-2017,0,-162,-130,25,14,10,5488,6400,504,0
1776865477731530,23,16,0,0,0,0,218,5495,6912,504,0
1776865477797058,24,12,0,0,0,0,170,5503,7168,504,0
1776865477731523,25,13,0,0,0,0,122,5511,5632,504,0
1776865477797057,25,15,0,0,0,0,73,5519,5888,248,0
1776865477731511,26,18,0,0,0,0,25,5527,6656,-8,255
1776865477797058,25,17,0,0,0,0,233,5534,7936,760,0
1776865477665987,23,17,0,0,0,0,185,5542,9472,1272,0
1776865477665991,22,17,0,0,0,0,137,5550,9728,2040,0
1776865477731521,26,15,0,0,0,0,88,5558,8192,3320,0
1776865477600444,30,15,0,0,0,0,40,5566,4864,3064,0
1776865477600436,32,16,-14854,21,-2035,13,79,32511,7423,4096,0
1776861191153000,0,0,-12854,21,-2037,1,76,32767,6143,3840,0
1776861191153000,0,0,-10854,21,-2041,-5,102,32511,5375,3328,0
1776861191153000,0,0,-8854,21,-2034,-12,104,32767,5631,3584,0
1776861191153000,0,0,-6854,21,-2023,-7,103,-32257,5887,3840,0
1776861191153000,0,0,-4854,21,-2024,4,91,-32001,6655,4096,0
1776861191153000,0,0,-2854,21,-2032,8,84,-32001,7935,3840,0
1776861191153000,0,0,-854,21,-2043,7,66,-32513,8447,4096,0
1776861191153000,0,0,1145,22,-2053,4,69,32767,6143,3840,0
1776861191153000,0,0,3145,22,-2051,-6,86,32511,3071,3840,0
1776861191153000,0,0,5145,22,-2042,-11,103,32511,1535,3840,0
1776861192601936,-2040,-16,-141,-128,14,15,0,0,0,0,0
1776861192603936,-2039,-13,-145,-127,30,15,0,0,0,0,0
1776861192605936,-2036,5,-178,-128,42,17,0,0,0,0,0
1776861192607936,-2024,11,-191,-130,39,19,0,0,0,0,0
1776861192609936,-2013,4,-185,-130,27,20,0,0,0,0,0
1776861192611936,-1998,-3,-168,-130,16,19,0,0,0,0,0
1776861192613939,-1993,-5,-135,-130,13,19,0,0,0,0,0
1776861192615938,-1990,3,-132,-129,18,19,0,0,0,0,0
1776861192617938,-1993,7,-159,-130,30,20,0,0,0,0,0
1776861192619938,-2008,7,-177,-129,40,20,0,0,0,0,0
1776861192621938,-2013,8,-186,-128,40,18,217,5745,9216,2296,0
1776865477731508,31,16,0,0,0,0,169,5753,6912,-264,255
1776865477665980,16,16,0,0,0,0,121,5761,6144,-776,255
1776865477665999,9,16,0,0,0,0,73,5769,5632,-776,255
1776865477666002,16,16,0,0,0,0,25,5777,9472,248,0
1776865477731532,25,16,0,0,0,0,232,5784,8960,1784,0
1776865477797048,29,18,0,0,0,0,184,5792,7168,2040,0
1776865477797038,29,16,0,0,0,0,136,5800,5888,2552,0
1776865477534903,26,14,0,0,0,0,88,5808,8192,1784,0
1776865477534927,21,14,0,0,0,0,40,5816,7168,-776,255
1776865477534932,17,17,0,0,0,0,248,5823,7424,-1800,255
1776865477666010,19,16,-14390,22,-2019,-9,109,-32257,6911,4096,0
1776861191153000,0,0,-12390,22,-2023,0,85,-32257,8447,4352,0
1776861191153000,0,0,-10390,22,-2028,9,71,32767,8959,4352,0
1776861191153000,0,0,-8391,22,-2029,12,69,32511,8191,4096,0
1776861191153000,0,0,-6391,22,-2031,6,84,31999,6143,4096,0
1776861191153000,0,0,-4391,22,-2031,-2,101,32255,3839,3584,0
1776861191153000,0,0,-2391,22,-2035,-3,100,32767,4863,3328,0
1776861191153000,0,0,-391,22,-2034,0,97,-32513,6911,3840,0
1776861191153000,0,0,1608,23,-2034,0,83,32767,8447,4096,0
1776861191153000,0,0,3608,23,-2032,5,81,32767,8703,4096,0
1776861191153000,0,0,5608,23,-2025,0,83,32767,6911,3840,0
1776861192667938,-2032,1,-173,-128,18,13,0,0,0,0,0
1776861192669938,-2028,-2,-156,-128,18,14,0,0,0,0,0
1776861192671938,-2030,-2,-160,-128,24,15,0,0,0,0,0
1776861192673938,-2034,3,-166,-128,29,17,0,0,0,0,0
1776861192675938,-2030,-4,-167,-129,33,19,0,0,0,0,0
1776861192677937,-2033,1,-178,-128,29,18,0,0,0,0,0
1776861192679937,-2039,4,-170,-129,23,17,0,0,0,0,0
1776861192681937,-2036,1,-153,-130,19,16,0,0,0,0,0
1776861192683936,-2020,-4,-154,-130,20,17,0,0,0,0,0
1776861192685936,-2010,-3,-156,-129,23,16,0,0,0,0,0
1776861192687936,-2010,3,-166,-129,27,16,170,6003,11776,1528,0
1776865477731518,29,16,0,0,0,0,122,6011,11776,1784,0
1776865477534903,27,18,0,0,0,0,74,6019,10752,2808,0
1776865477600448,24,18,0,0,0,0,26,6027,11008,1272,0
1776865477731527,21,18,0,0,0,0,234,6034,8704,248,0
1776865477731525,22,16,0,0,0,0,185,6042,7680,-8,255
1776865477665986,26,16,0,0,0,0,137,6050,8192,760,0
1776865477797067,30,16,0,0,0,0,89,6058,8192,1784,0
1776865477797061,30,15,0,0,0,0,40,6066,7936,2296,0
1776865477600451,27,15,0,0,0,0,248,6073,6912,504,0
1776865477600450,23,15,0,0,0,0,200,6081,6400,760,0
1776865477534918,21,17,-13926,23,-2023,3,86,32511,5375,4352,0
1776861191153000,0,0,-11926,23,-2021,-4,92,-32513,6143,4096,0
1776861191153000,0,0,-9926,23,-2025,0,90,-32257,6911,3584,0
1776861191153000,0,0,-7927,23,-2017,1,80,-32257,7167,4096,0
1776861191153000,0,0,-5927,23,-2014,5,81,-32513,7167,4352,0
1776861191153000,0,0,-3927,23,-2019,-1,79,32511,6911,4096,0
1776861191153000,0,0,-1927,23,-2023,8,91,32767,6143,3840,0
1776861191153000,0,0,72,24,-2024,8,95,32767,5631,4096,0
1776861191153000,0,0,2072,24,-2032,1,102,32767,5887,4352,0
1776861191153000,0,0,4072,24,-2034,4,95,32255,7167,3840,0
1776861191153000,0,0,6072,24,-2025,-3,86,32511,7935,3584,0
1776861192733938,-2024,-4,-166,-129,28,17,0,0,0,0,0
1776861192735938,-2029,-1,-169,-130,26,16,0,0,0,0,0
1776861192737938,-2035,-2,-166,-131,25,17,0,0,0,0,0
1776861192739937,-2036,-4,-163,-131,24,15,0,0,0,0,0
1776861192741937,-2030,3,-160,-130,23,16,0,0,0,0,0
1776861192743937,-2025,4,-155,-129,26,17,0,0,0,0,0
1776861192745937,-2026,6,-159,-128,23,17,0,0,0,0,0
1776861192747937,-2027,7,-162,-128,22,16,0,0,0,0,0
1776861192749936,-2032,9,-161,-129,24,17,0,0,0,0,0
1776861192751936,-2027,6,-169,-128,27,18,0,0,0,0,0
1776861192753936,-2029,1,-171,-126,27,17,122,6261,4864,1528,0
1776865477862587,26,16,0,0,0,0,74,6269,5376,760,0
1776865477797064,25,16,0,0,0,0,26,6277,6144,-8,255
1776865477797058,24,16,0,0,0,0,233,6284,6912,1016,0
1776865477797051,27,16,0,0,0,0,185,6292,7168,1784,0
1776865477797053,29,18,0,0,0,0,137,6300,8448,1784,0
1776865477797060,25,18,0,0,0,0,88,6308,8960,248,0
1776865477731534,20,18,0,0,0,0,40,6316,10496,-520,255
1776865477665996,20,16,0,0,0,0,248,6323,9472,760,0
1776865477731528,24,17,0,0,0,0,200,6331,10496,1272,0
1776865477797048,29,15,0,0,0,0,155,6339,10240,2552,0
1776865477731517,29,16,-31020,25,-2003,4,117,32255,3583,4864,0
1776861191153000,0,0,-29020,25,-2010,-2,127,32255,3839,5120,0
1776861191153000,0,0,-27020,25,-2022,-2,111,32767,7167,5376,0
1776861191153000,0,0,-25020,25,-2034,3,87,32767,10751,5632,0
1776861191153000,0,0,-23020,25,-2038,-3,69,32767,11519,5632,0
1776861191153000,0,0,-21020,25,-2041,0,61,32511,9215,4864,0
1776861191153000,0,0,-19018,25,-2041,4,77,32767,5631,4352,0
1776861191153000,0,0,-17018,25,-2040,0,89,-32513,3583,3840,0
1776861191153000,0,0,-15018,25,-2031,2,96,32767,4863,4096,0
1776861191153000,0,0,-13018,25,-2010,4,86,32767,6655,4608,0
1776861191153000,0,0,-11018,25,-2004,4,88,-32257,6655,4608,0
1776861192847917,-2004,4,-167,-127,22,20,0,0,0,0,0
1776861192849917,-2008,2,-165,-128,20,20,0,0,0,0,0
1776861192851917,-2007,-2,-164,-130,20,21,0,0,0,0,0
1776861192853917,-1997,-6,-163,-129,22,19,0,0,0,0,0
1776861192855917,-1996,-7,-158,-130,22,18,0,0,0,0,0
1776861192857916,-1994,1,-158,-129,24,19,0,0,0,0,0
1776861192859916,-1996,6,-167,-127,27,20,0,0,0,0,0
1776861192861916,-2000,11,-178,-125,30,20,0,0,0,0,0
1776861192863916,-2002,13,-178,-127,31,19,0,0,0,0,0
1776861192865916,-1997,10,-172,-128,27,15,0,0,0,0,0
1776861192867916,-2007,4,-165,-129,21,11,182,6706,6400,-520,255
1776865477665996,18,9,0,0,0,0,134,6714,6912,-1032,255
1776865477666000,21,10,0,0,0,0,86,6722,7168,-776,255
1776865477731535,28,13,0,0,0,0,38,6730,9472,1784,0
1776865477797052,33,16,0,0,0,0,246,6737,8448,1528,0
1776865477797044,28,14,0,0,0,0,198,6745,6144,504,0
1776865477797051,18,13,0,0,0,0,150,6753,2816,-8,255
1776865477665992,12,13,0,0,0,0,102,6761,1536,2040,0
1776865477665998,15,16,0,0,0,0,54,6769,0,504,0
1776865477731531,23,16,0,0,0,0,5,6777,-256,247,0
1776865477731519,29,14,0,0,0,0,212,6784,-2304,-1033,255
1776865477797054,25,12,-30556,26,-2053,-7,84,-32513,6399,3584,0
1776861191153000,0,0,-28556,26,-2050,-6,87,32767,7167,3584,0
1776861191153000,0,0,-26556,26,-2049,-5,81,-32257,7935,3840,0
1776861191153000,0,0,-24556,26,-2038,2,81,-32001,8191,3840,0
1776861191153000,0,0,-22556,26,-2030,1,80,-32001,7423,4352,0
1776861191153000,0,0,-20554,26,-2028,5,86,-32001,6655,5120,0
1776861191153000,0,0,-18554,26,-2022,6,86,-32257,6399,4864,0
1776861191153000,0,0,-16554,26,-2026,1,95,32767,6399,5120,0
1776861191153000,0,0,-14554,26,-2015,-3,89,32511,6143,5376,0
1776861191153000,0,0,-12554,26,-2013,-2,93,32767,6655,4864,0
1776861191153000,0,0,-10554,26,-2016,4,101,-32513,6655,4352,0
1776861192913917,-2011,0,-156,-128,27,15,0,0,0,0,0
1776861192915917,-2011,3,-165,-128,31,14,0,0,0,0,0
1776861192917917,-2011,3,-161,-128,33,14,0,0,0,0,0
1776861192919917,-2010,0,-167,-128,33,16,0,0,0,0,0
1776861192921916,-2003,-1,-176,-128,26,17,0,0,0,0,0
1776861192923916,-1986,-6,-155,-129,20,18,0,0,0,0,0
1776861192925916,-1966,-3,-152,-128,18,17,0,0,0,0,0
1776861192927916,-1963,10,-135,-128,26,17,0,0,0,0,0
1776861192929916,-1987,19,-156,-128,39,18,0,0,0,0,0
1776861192931916,-2023,20,-196,-128,41,16,0,0,0,0,0
1776861192933916,-2040,18,-204,-129,33,16,134,6964,-1792,2039,0
1776865477534882,15,16,0,0,0,0,86,6972,-256,-3337,255
1776865477600467,3,13,0,0,0,0,38,6980,1024,-5384,255
1776865477666024,1,9,0,0,0,0,246,6987,2304,-3848,255
1776865477797100,14,8,0,0,0,0,198,6995,256,1528,0
1776865477993693,34,10,0,0,0,0,150,7003,2816,3320,0
1776865477993653,46,15,0,0,0,0,102,7011,6144,3064,0
1776865477797034,42,18,0,0,0,0,54,7019,8704,760,0
1776865477534900,24,18,0,0,0,0,5,7027,10240,-264,255
1776865477403863,3,18,0,0,0,0,213,7034,8192,-1800,255
1776865477666033,-2,19,0,0,0,0,165,7042,6656,-2312,255
1776865477862635,15,19,-30092,27,-2031,3,100,-32257,11007,5120,0
1776861191153000,0,0,-28092,27,-2042,13,64,-32001,14335,5632,0
1776861191153000,0,0,-26092,27,-2054,15,42,-32257,11775,5120,0
1776861191153000,0,0,-24092,27,-2056,7,55,32511,6911,4352,0
1776861191153000,0,0,-22092,27,-2063,-9,83,32511,3583,4352,0
1776861191153000,0,0,-20092,27,-2055,-13,98,32511,2559,3840,0
1776861191153000,0,0,-18092,27,-2047,-9,111,-32513,3839,4096,0
1776861191153000,0,0,-16090,27,-2036,-4,102,-32257,5631,4608,0
1776861191153000,0,0,-14090,27,-2032,11,79,-32513,7423,4352,0
1776861191153000,0,0,-12090,27,-2034,18,58,-32257,8191,4608,0
1776861191153000,0,0,-10090,27,-2026,10,59,32767,6911,4864,0
1776861192979917,-2013,1,-170,-131,16,20,0,0,0,0,0
1776861192981917,-2007,-6,-156,-131,11,20,0,0,0,0,0
1776861192983917,-2002,-12,-144,-130,15,20,0,0,0,0,0
1776861192985917,-2006,-7,-160,-128,28,20,0,0,0,0,0
1776861192987917,-2002,6,-173,-126,39,21,0,0,0,0,0
1776861192989917,-2000,13,-181,-127,40,21,0,0,0,0,0
1776861192991917,-1998,11,-179,-127,29,17,0,0,0,0,0
1776861192993917,-2005,5,-162,-129,19,16,0,0,0,0,0
1776861192995917,-2011,1,-152,-129,17,13,0,0,0,0,0
1776861192997917,-2009,8,-146,-129,22,15,0,0,0,0,0
1776861192999916,-2003,6,-155,-128,31,17,84,7222,13824,2296,0
1776865477665978,35,17,0,0,0,0,36,7230,12544,-8,255
1776865477600432,29,17,0,0,0,0,244,7237,11520,2552,0
1776865477600436,20,16,0,0,0,0,196,7245,11008,248,0
1776865477665992,14,15,0,0,0,0,150,7253,8192,-520,255
1776865477797067,16,16,0,0,0,0,102,7261,4608,504,0
1776865477797053,21,17,0,0,0,0,54,7269,4608,1528,0
1776865477731521,24,15,0,0,0,0,6,7277,2304,1784,0
1776865477731517,25,15,0,0,0,0,213,7284,1024,248,0
1776865477797052,25,14,0,0,0,0,165,7292,1280,-1032,255
1776865477797065,25,13,0,0,0,0,117,7300,256,-1288,255
1776865477731525,25,12,-29628,28,-2038,-4,91,-32513,7423,3840,0
1776861191153000,0,0,-27628,28,-2036,-7,92,32767,8191,3840,0
1776861191153000,0,0,-25628,28,-2037,-1,82,32767,8447,4096,0
1776861191153000,0,0,-23625,28,-2041,2,68,32511,8447,4608,0
1776861191153000,0,0,-21625,28,-2037,-1,72,-32513,7935,4352,0
1776861191153000,0,0,-19625,28,-2032,1,83,-32513,5631,4864,0
1776861191153000,0,0,-17625,28,-2024,-3,105,32767,4095,5120,0
1776861191153000,0,0,-15626,28,-2026,0,116,-32513,4351,4608,0
1776861191153000,0,0,-13626,28,-2024,0,113,32767,6143,4096,0
1776861191153000,0,0,-11627,28,-2026,6,94,-32513,8447,4096,0
1776861191153000,0,0,-9627,28,-2032,10,83,-32513,10239,4096,0
1776861193045916,-2037,2,-179,-129,34,15,0,0,0,0,0
1776861193047916,-2034,-5,-184,-130,26,14,0,0,0,0,0
1776861193049916,-2030,-8,-160,-133,20,14,0,0,0,0,0
1776861193051916,-2027,-10,-146,-131,16,14,0,0,0,0,0
1776861193053916,-2015,-2,-143,-128,21,18,0,0,0,0,0
1776861193055916,-2011,3,-156,-126,29,20,0,0,0,0,0
1776861193057916,-2011,9,-172,-126,34,21,0,0,0,0,0
1776861193059918,-2003,6,-183,-131,30,22,0,0,0,0,0
1776861193061918,-2007,7,-172,-132,19,22,0,0,0,0,0
1776861193063918,-2011,5,-157,-131,11,19,0,0,0,0,0
1776861193065918,-2010,-3,-140,-129,14,16,37,7480,11008,-8,255
1776865477666006,25,15,0,0,0,0,245,7487,12800,504,0
1776865477731538,33,15,0,0,0,0,196,7495,12800,2296,0
1776865477731520,36,13,0,0,0,0,148,7503,11520,2040,0
1776865477665966,33,14,0,0,0,0,100,7511,11264,504,0
1776865477600439,25,13,0,0,0,0,52,7519,12032,-776,255
1776865477600460,19,16,0,0,0,0,7,7527,13568,-776,255
1776865477600460,19,16,0,0,0,0,214,7534,13056,504,0
1776865477666006,22,15,0,0,0,0,166,7542,11008,1528,0
1776865477731540,25,15,0,0,0,0,118,7550,7936,2296,0
1776865477665987,28,16,0,0,0,0,70,7558,6144,1784,0
1776865477797048,31,15,-29163,29,-2021,-4,76,32255,7679,2816,0
1776861191153000,0,0,-27163,29,-2020,-8,87,32255,5631,2304,0
1776861191153000,0,0,-25164,29,-2031,-4,102,32511,5631,2304,0
1776861191153000,0,0,-23164,29,-2045,0,104,-32513,7167,2560,0
1776861191153000,0,0,-21164,29,-2035,-1,100,-32257,8703,3328,0
1776861191153000,0,0,-19162,29,-2016,-2,85,-32257,8959,4096,0
1776861191153000,0,0,-17162,29,-2001,2,76,-32513,7935,4608,0
1776861191153000,0,0,-15162,29,-2010,7,91,32767,6655,3840,0
1776861191153000,0,0,-13162,29,-2033,10,88,32511,6911,3328,0
1776861191153000,0,0,-11163,29,-2062,13,75,32767,8447,4096,0
1776861191153000,0,0,-9163,29,-2080,3,80,32511,7935,4864,0
1776861193111916,-2077,-10,-177,-131,24,16,0,0,0,0,0
1776861193113916,-2072,-22,-166,-130,15,10,0,0,0,0,0
1776861193115916,-2059,-18,-137,-128,13,9,0,0,0,0,0
1776861193117916,-2049,-14,-136,-126,15,10,0,0,0,0,0
1776861193119916,-2042,-5,-166,-126,29,13,0,0,0,0,0
1776861193121916,-2027,4,-190,-127,40,16,0,0,0,0,0
1776861193123916,-2015,9,-204,-126,36,21,0,0,0,0,0
1776861193125916,-2015,8,-178,-127,21,22,0,0,0,0,0
1776861193127916,-2024,7,-152,-131,5,19,0,0,0,0,0
1776861193129916,-2025,-4,-137,-131,4,19,0,0,0,0,0
1776861193131919,-2028,-3,-141,-128,21,22,246,7737,5120,248,0
1776865477862606,41,24,0,0,0,0,198,7745,6912,760,0
1776865477797047,50,20,0,0,0,0,149,7753,6912,2040,0
1776865477665956,44,17,0,0,0,0,101,7761,7936,2552,0
1776865477665965,34,16,0,0,0,0,53,7769,7936,-8,255
1776865477731510,25,15,0,0,0,0,5,7777,9728,-1544,255
1776865477665987,17,15,0,0,0,0,213,7784,11264,-8,255
1776865477666009,14,16,0,0,0,0,164,7792,11008,2040,0
1776865477862609,14,16,0,0,0,0,116,7800,8960,3832,0
1776865477928133,24,17,0,0,0,0,68,7808,8448,3064,0
1776865477862589,33,18,0,0,0,0,20,7816,8448,2808,0
1776865477731508,32,18,-28698,30,-2002,7,90,32255,5887,4608,0
1776861191153000,0,0,-26698,30,-2002,-4,105,32255,4351,4096,0
1776861191153000,0,0,-24698,30,-2015,-6,109,31999,4863,3584,0
1776861191153000,0,0,-22699,30,-2013,1,97,32767,7167,3840,0
1776861191153000,0,0,-20699,30,-2005,3,85,-32513,8959,4608,0
1776861191153000,0,0,-18699,30,-2005,9,72,-32513,8447,5120,0
1776861191153000,0,0,-16700,30,-2012,12,76,-32513,6655,4608,0
1776861191153000,0,0,-14700,30,-2014,3,95,-32513,4863,4352,0
1776861191153000,0,0,-12700,30,-2018,1,114,32511,5375,4096,0
1776861191153000,0,0,-10700,30,-2019,9,110,32255,6655,4096,0
1776861191153000,0,0,-8697,30,-2018,2,102,32255,7423,3328,0
1776861193231196,-2008,-10,-165,-129,22,19,0,0,0,0,0
1776861193233196,-2004,-3,-165,-129,21,19,0,0,0,0,0
1776861193235196,-2009,1,-157,-130,21,20,0,0,0,0,0
1776861193237196,-2009,4,-162,-130,21,21,0,0,0,0,0
1776861193239196,-2012,8,-153,-128,26,17,0,0,0,0,0
1776861193241196,-2013,7,-152,-128,26,15,0,0,0,0,0
1776861193243198,-2014,9,-158,-130,26,14,0,0,0,0,0
1776861193245198,-2023,0,-156,-127,27,14,0,0,0,0,0
1776861193247198,-2029,-5,-159,-128,28,13,0,0,0,0,0
1776861193249198,-2025,-2,-167,-129,27,13,0,0,0,0,0
1776861193251197,-2022,-2,-174,-130,27,13,228,8203,6144,248,0
1776865477797047,28,15,0,0,0,0,183,8211,5888,2040,0
1776865477665981,26,16,0,0,0,0,134,8219,5888,2296,0
1776865477665979,23,16,0,0,0,0,86,8227,4608,1016,0
1776865477797061,18,16,0,0,0,0,38,8235,1536,-1032,255
1776865477731523,19,15,0,0,0,0,245,8242,0,504,0
1776865477731531,26,17,0,0,0,0,197,8250,0,-2056,255
1776865477797059,30,16,0,0,0,0,149,8258,256,-264,255
1776865477731518,28,15,0,0,0,0,101,8266,768,-8,255
1776865477665984,21,15,0,0,0,0,52,8274,-1024,-1033,255
1776865477665981,23,15,0,0,0,0,4,8282,768,-2568,255
1776865477731519,28,17,25046,32,-2034,-4,94,-32513,7935,4608,0
1776861191153000,0,0,27046,32,-2022,-5,87,32767,7679,4352,0
1776861191153000,0,0,29046,32,-2019,-2,97,32511,7167,4608,0
1776861191153000,0,0,31045,32,-2019,4,99,32255,6655,4608,0
1776861191153000,0,0,-32491,32,-2019,5,108,32255,6911,4608,0
1776861191153000,0,0,-30491,32,-2012,5,105,32255,7423,4864,0
1776861191153000,0,0,-28491,32,-2012,3,97,32511,7167,4864,0
1776861191153000,0,0,-26492,32,-2010,2,95,-32513,7423,4352,0
1776861191153000,0,0,-24492,32,-2008,1,86,32767,6911,3840,0
1776861191153000,0,0,-22492,32,-2013,0,90,32767,6399,3840,0
1776861191153000,0,0,-20490,32,-2009,3,93,32767,6655,4096,0
1776861193297197,-2006,0,-165,-131,25,18,0,0,0,0,0
1776861193299196,-2004,-1,-182,-130,24,19,0,0,0,0,0
1776861193301196,-2007,0,-174,-130,22,18,0,0,0,0,0
1776861193303199,-2009,5,-159,-129,23,17,0,0,0,0,0
1776861193305199,-2002,8,-156,-129,25,17,0,0,0,0,0
1776861193307199,-2005,8,-167,-129,27,16,0,0,0,0,0
1776861193309198,-2002,4,-157,-129,27,16,0,0,0,0,0
1776861193311198,-2001,8,-161,-130,26,13,0,0,0,0,0
1776861193313198,-2014,6,-154,-131,26,12,0,0,0,0,0
1776861193315198,-2023,5,-161,-130,29,13,0,0,0,0,0
1776861193317198,-2026,6,-172,-128,31,13,181,8461,4096,1016,0
1776865477797051,28,13,0,0,0,0,133,8469,2560,-8,255
1776865477797054,24,10,0,0,0,0,85,8477,2304,-2568,255
1776865477731522,22,12,0,0,0,0,36,8485,3584,-8,255
1776865477731530,26,13,0,0,0,0,244,8492,5888,-8,255
1776865477797066,27,14,0,0,0,0,196,8500,11008,-520,255
1776865477928129,27,15,0,0,0,0,148,8508,12288,1016,0
1776865477797057,25,15,0,0,0,0,103,8516,8448,2040,0
1776865477797063,24,14,0,0,0,0,55,8524,3840,2808,0
1776865477731518,28,14,0,0,0,0,6,8532,-512,4599,0
1776865477600449,30,14,0,0,0,0,214,8539,-2048,1271,0
1776865477600456,29,16,25509,33,-2058,-3,81,32255,6655,4096,0
1776861191153000,0,0,27509,33,-2060,-10,98,32511,5119,3072,0
1776861191153000,0,0,29509,33,-2060,-11,103,-32513,5119,2816,0
1776861191153000,0,0,31508,33,-2059,-5,94,-32257,6911,3840,0
1776861191153000,0,0,-32028,33,-2048,-1,81,-32513,8703,4608,0
1776861191153000,0,0,-30028,33,-2031,5,67,-32513,8959,4864,0
1776861191153000,0,0,-28028,33,-2023,5,79,32511,6655,4608,0
1776861191153000,0,0,-26025,33,-2024,6,97,32511,3583,4864,0
1776861191153000,0,0,-24025,33,-2024,7,112,32511,1791,4864,0
1776861191153000,0,0,-22026,33,-2025,4,109,32511,4351,5120,0
1776861191153000,0,0,-20026,33,-2024,2,95,-32513,8447,5376,0
1776861193363197,-2024,5,-176,-127,44,20,0,0,0,0,0
1776861193365197,-2023,6,-184,-129,40,19,0,0,0,0,0
1776861193367197,-2020,-2,-186,-131,29,18,0,0,0,0,0
1776861193369196,-2020,-4,-178,-130,21,18,0,0,0,0,0
1776861193371196,-2010,-3,-166,-128,18,19,0,0,0,0,0
1776861193373196,-2001,-7,-154,-129,18,19,0,0,0,0,0
1776861193375199,-1999,3,-155,-129,21,20,0,0,0,0,0
1776861193377199,-1999,11,-168,-127,25,21,0,0,0,0,0
1776861193379199,-2005,11,-177,-129,26,20,0,0,0,0,0
1776861193381198,-2005,10,-170,-128,26,19,0,0,0,0,0
1776861193383198,-2000,6,-155,-129,24,18,133,8719,13312,-8,255
1776865477666001,20,16,0,0,0,0,85,8727,12544,760,0
1776865477666002,21,15,0,0,0,0,36,8735,11520,-8,255
1776865477665997,30,17,0,0,0,0,244,8742,11264,1272,0
1776865477731519,33,17,0,0,0,0,196,8750,11776,1784,0
1776865477731513,31,17,0,0,0,0,148,8758,10240,1528,0
1776865477665984,26,18,0,0,0,0,100,8766,8704,1528,0
1776865477600454,21,16,0,0,0,0,52,8774,7936,248,0
1776865477534924,21,16,0,0,0,0,6,8782,6656,-8,255
1776865477731535,23,17,0,0,0,0,214,8789,6144,-264,255
1776865477862598,28,14,0,0,0,0,166,8797,4352,-264,255
1776865477665985,29,13,25973,34,-2031,-3,94,32511,7167,2816,0
1776861191153000,0,0,27973,34,-2035,-5,85,32767,6655,2816,0
1776861191153000,0,0,29973,34,-2033,-7,78,32767,6399,3072,0
1776861191153000,0,0,31973,34,-2037,-5,92,-32513,5887,3328,0
1776861191153000,0,0,-31564,34,-2037,-8,90,-32257,5887,4096,0
1776861191153000,0,0,-29564,34,-2034,-6,87,32767,6399,4608,0
1776861191153000,0,0,-27564,34,-2044,4,77,32511,6911,4608,0
1776861191153000,0,0,-25564,34,-2048,5,77,-32513,6911,4352,0
1776861191153000,0,0,-23564,34,-2042,0,85,-32513,6399,4352,0
1776861191153000,0,0,-21562,34,-2042,-3,94,-32513,6655,4096,0
1776861191153000,0,0,-19562,34,-2040,3,111,-32257,5887,3840,0
1776861193429197,-2039,-1,-148,-126,25,16,0,0,0,0,0
1776861193431197,-2035,3,-160,-128,30,16,0,0,0,0,0
1776861193433196,-2027,-1,-170,-129,32,17,0,0,0,0,0
1776861193435196,-2016,5,-168,-129,29,18,0,0,0,0,0
1776861193437196,-2019,4,-166,-131,26,17,0,0,0,0,0
1776861193439199,-2016,4,-160,-128,21,16,0,0,0,0,0
1776861193441198,-2013,-1,-159,-127,23,16,0,0,0,0,0
1776861193443198,-2012,1,-164,-128,26,17,0,0,0,0,0
1776861193445198,-2009,3,-163,-130,27,17,0,0,0,0,0
1776861193447198,-2015,1,-168,-130,29,17,0,0,0,0,0
1776861193449197,-2014,3,-168,-129,28,18,85,8977,8192,504,0
1776865477731519,26,18,0,0,0,0,37,8985,8704,504,0
1776865477731530,23,17,0,0,0,0,244,8992,9984,760,0
1776865477666002,22,16,0,0,0,0,196,9000,10752,-776,255
1776865477731535,22,17,0,0,0,0,148,9008,11776,760,0
1776865477731528,24,19,0,0,0,0,100,9016,12544,2040,0
1776865477731523,24,16,0,0,0,0,52,9024,13312,2808,0
1776865477731522,24,18,0,0,0,0,6,9032,15360,2040,0
1776865477797056,27,17,0,0,0,0,214,9039,14848,2808,0
1776865477797064,26,16,0,0,0,0,166,9047,12800,2040,0
1776865477797070,26,16,0,0,0,0,118,9055,9472,2296,0
1776865477797067,27,12,26437,35,-2021,8,101,-32513,7679,3072,0
1776861191153000,0,0,28437,35,-2027,3,94,-32513,6911,3584,0
1776861191153000,0,0,30437,35,-2033,2,96,-32513,6911,3072,0
1776861191153000,0,0,32436,35,-2037,-8,91,-32513,7167,3072,0
1776861191153000,0,0,-31100,35,-2046,-9,102,-32513,6911,3328,0
1776861191153000,0,0,-29100,35,-2036,-2,96,32255,7167,3584,0
1776861191153000,0,0,-27100,35,-2028,-3,101,32511,6911,3328,0
1776861191153000,0,0,-25098,35,-2024,5,96,-32513,7423,3072,0
1776861191153000,0,0,-23098,35,-2034,14,97,-32513,7167,3584,0
1776861191153000,0,0,-21098,35,-2050,16,83,32767,7167,3584,0
1776861191153000,0,0,-19098,35,-2063,9,85,-32513,6655,3840,0
1776861193495197,-2071,2,-168,-129,20,17,0,0,0,0,0
1776861193497197,-2071,-11,-163,-129,17,16,0,0,0,0,0
1776861193499197,-2063,-14,-151,-128,18,16,0,0,0,0,0
1776861193501196,-2061,-15,-162,-129,23,14,0,0,0,0,0
1776861193503196,-2060,-3,-174,-126,30,15,0,0,0,0,0
1776861193505196,-2044,7,-190,-126,34,18,0,0,0,0,0
1776861193507196,-2025,11,-200,-128,33,19,0,0,0,0,0
1776861193509199,-2009,10,-171,-131,22,19,0,0,0,0,0
1776861193511196,-2007,4,-155,-131,12,18,0,0,0,0,0
1776861193513198,-2016,4,-133,-130,12,18,0,0,0,0,0
1776861193515198,-2018,3,-143,-127,24,19,37,9235,5120,2040,0
1776865477797048,38,20,0,0,0,0,245,9242,6656,504,0
1776865477731498,41,20,0,0,0,0,197,9250,6400,1016,0
1776865477797031,34,19,0,0,0,0,148,9258,6400,248,0
1776865477731506,22,17,0,0,0,0,100,9266,5888,-8,255
1776865477797061,14,18,0,0,0,0,52,9274,8448,-8,255
1776865477731534,18,21,0,0,0,0,7,9282,11008,1272,0
1776865477665995,25,21,0,0,0,0,214,9289,13056,2040,0
1776865477797056,28,19,0,0,0,0,166,9297,13824,3064,0
1776865477665991,27,17,0,0,0,0,118,9305,13824,3320,0
1776865477665994,24,17,0,0,0,0,70,9313,14592,2040,0
1776865477600462,22,16,26901,36,-1989,2,100,32255,6655,4096,0
1776861191153000,0,0,28901,36,-1985,1,95,-32513,7167,4096,0
1776861191153000,0,0,30901,36,-1986,4,93,32767,7423,4096,0
1776861191153000,0,0,-32635,36,-1987,6,89,-32513,7167,4352,0
1776861191153000,0,0,-30636,36,-1999,10,87,-32001,7167,4096,0
1776861191153000,0,0,-28636,36,-2006,11,86,-32257,7167,4096,0
1776861191153000,0,0,-26636,36,-2020,5,83,-32257,6399,3328,0
1776861191153000,0,0,-24636,36,-2038,1,86,-32513,5119,2560,0
1776861191153000,0,0,-22633,36,-2037,-3,97,32511,5119,2816,0
1776861191153000,0,0,-20634,36,-2039,-10,104,32767,5375,2816,0
1776861191153000,0,0,-18634,36,-2037,-10,91,-32513,6143,3072,0
1776861193561197,-2033,-5,-172,-127,27,13,0,0,0,0,0
1776861193563197,-2032,-4,-169,-128,27,15,0,0,0,0,0
1776861193565197,-2033,4,-168,-131,23,16,0,0,0,0,0
1776861193567196,-2031,4,-167,-129,21,18,0,0,0,0,0
1776861193569196,-2039,-2,-159,-129,21,18,0,0,0,0,0
1776861193571196,-2047,-9,-152,-130,21,17,0,0,0,0,0
1776861193573199,-2054,-1,-164,-130,25,18,0,0,0,0,0
1776861193575198,-2059,3,-166,-129,30,18,0,0,0,0,0
1776861193577198,-2063,1,-164,-131,29,17,0,0,0,0,0
1776861193579197,-2054,-2,-169,-128,27,16,0,0,0,0,0
1776861193581197,-2044,-7,-174,-129,25,15,244,9679,2816,-520,255
1776865477731520,29,10,0,0,0,0,196,9687,1792,-520,255
1776865477731505,30,11,0,0,0,0,148,9695,1024,504,0
1776865477731508,25,13,0,0,0,0,100,9703,2048,1016,0
1776865477731513,23,13,0,0,0,0,52,9711,3072,-264,255
1776865477797056,23,12,0,0,0,0,4,9719,3328,760,0
1776865477797060,23,14,0,0,0,0,212,9726,4864,504,0
1776865477797064,26,16,0,0,0,0,164,9734,3328,248,0
1776865477731525,25,18,0,0,0,0,119,9742,1536,248,0
1776865477600448,24,17,0,0,0,0,70,9750,1024,504,0
1776865477665988,25,16,0,0,0,0,22,9758,768,504,0
1776865477797064,26,15,9701,38,-2048,2,87,-32001,6911,4096,0
1776861191153000,0,0,11701,38,-2045,1,81,-32513,7423,4096,0
1776861191153000,0,0,13701,38,-2043,-2,81,32511,7935,4352,0
1776861191153000,0,0,15701,38,-2034,-1,82,-32513,7423,4864,0
1776861191153000,0,0,17701,38,-2028,0,78,-32001,6911,4864,0
1776861191153000,0,0,19700,38,-2024,-5,80,-32257,6143,4864,0
1776861191153000,0,0,21700,38,-2023,-2,91,-32257,6399,5120,0
1776861191153000,0,0,23700,38,-2021,-2,101,-32513,6655,4608,0
1776861191153000,0,0,25700,38,-2018,3,93,-32513,6911,4608,0
1776861191153000,0,0,27703,38,-2014,4,95,-32513,6911,4864,0
1776861191153000,0,0,29702,38,-2009,0,100,32767,7679,4864,0
1776861193675069,-2007,6,-159,-130,27,20,0,0,0,0,0
1776861193677069,-2008,5,-167,-128,26,19,0,0,0,0,0
1776861193679069,-2010,1,-162,-129,26,17,0,0,0,0,0
1776861193681069,-2010,8,-159,-130,25,17,0,0,0,0,0
1776861193683069,-2002,8,-166,-129,24,17,0,0,0,0,0
1776861193685069,-2000,-1,-163,-128,25,16,0,0,0,0,0
1776861193687069,-2009,3,-166,-128,25,18,0,0,0,0,0
1776861193689069,-2003,4,-163,-129,27,18,0,0,0,0,0
1776861193691069,-2004,5,-169,-130,26,17,0,0,0,0,0
1776861193693069,-2001,2,-168,-130,25,17,0,0,0,0,0
1776861193695069,-2005,5,-164,-130,23,16,196,9937,8960,2808,0
1776865477665987,23,16,0,0,0,0,148,9945,7168,2040,0
1776865477665986,26,17,0,0,0,0,100,9953,6144,1016,0
1776865477731530,26,16,0,0,0,0,52,9961,5888,248,0
1776865477731528,25,13,0,0,0,0,6,9969,4096,1016,0
1776865477731517,26,12,0,0,0,0,214,9976,4352,1272,0
1776865477665980,25,12,0,0,0,0,166,9984,2560,504,0
1776865477665987,25,12,0,0,0,0,117,9992,1792,-8,255
1776865477797054,24,15,0,0,0,0,69,10000,3328,-1032,255
1776865477797053,22,15,0,0,0,0,21,10008,5632,-776,255
1776865477665991,23,16,0,0,0,0,229,10015,5888,-264,255
1776865477600449,23,16,10164,39,-2023,5,80,32767,6399,4352,0
1776861191153000,0,0,12164,39,-2024,4,85,-32513,7167,4608,0
1776861191153000,0,0,14164,39,-2024,-2,80,-32513,7679,4608,0
1776861191153000,0,0,16164,39,-2028,3,77,32255,7167,4608,0
1776861191153000,0,0,18164,39,-2027,-3,87,31999,6655,3840,0
1776861191153000,0,0,20167,39,-2017,-1,101,32511,6655,3584,0
1776861191153000,0,0,22166,39,-2004,-2,98,32767,7167,3328,0
1776861191153000,0,0,24166,39,-1997,9,99,-32513,7679,3328,0
1776861191153000,0,0,26166,39,-2021,12,91,32767,8703,3840,0
1776861191153000,0,0,28166,39,-2052,15,69,32767,8703,4096,0
1776861191153000,0,0,30166,39,-2063,6,68,32511,6655,4608,0
1776861193741069,-2067,-4,-179,-130,11,17,0,0,0,0,0
1776861193743069,-2054,-20,-153,-130,0,15,0,0,0,0,0
1776861193745068,-2037,-26,-140,-128,3,15,0,0,0,0,0
1776861193747068,-2027,-18,-144,-125,20,14,0,0,0,0,0
1776861193749068,-2035,0,-171,-124,39,15,0,0,0,0,0
1776861193751068,-2031,12,-200,-125,47,17,0,0,0,0,0
1776861193753070,-2017,13,-203,-128,38,20,0,0,0,0,0
1776861193755070,-2001,3,-168,-132,16,19,0,0,0,0,0
1776861193757070,-2000,-6,-135,-133,-3,18,0,0,0,0,0
1776861193759070,-1999,-8,-105,-131,2,18,0,0,0,0,0
1776861193761070,-2010,-7,-121,-127,26,19,149,10195,7936,504,0
1776865477862590,52,21,0,0,0,0,101,10203,6400,2040,0
1776865477797017,57,20,0,0,0,0,53,10211,5888,2296,0
1776865477665947,40,18,0,0,0,0,5,10219,4096,1016,0
1776865477534898,19,16,0,0,0,0,213,10226,4864,-776,255
1776865477600456,5,15,0,0,0,0,165,10234,4352,-2824,255
1776865477797088,5,14,0,0,0,0,117,10242,6144,-776,255
1776865477862607,17,16,0,0,0,0,69,10250,7424,1528,0
1776865477862611,28,16,0,0,0,0,21,10258,5120,3832,0
1776865477862596,29,16,0,0,0,0,229,10265,3072,3576,0
1776865477731502,29,14,0,0,0,0,181,10273,3840,504,0
1776865477665970,24,14,10628,40,-2021,-8,90,31999,5375,4096,0
1776861191153000,0,0,12628,40,-2015,-7,110,32255,5119,4608,0
1776861191153000,0,0,14628,40,-2011,5,121,32767,5887,4864,0
1776861191153000,0,0,16628,40,-2012,4,100,32767,7935,5376,0
1776861191153000,0,0,18631,40,-2010,16,91,32511,9727,6144,0
1776861191153000,0,0,20631,40,-2013,17,69,32255,9471,5632,0
1776861191153000,0,0,22631,40,-2010,15,68,32511,7935,4608,0
1776861191153000,0,0,24631,40,-2014,5,89,-32513,4863,3584,0
1776861191153000,0,0,26630,40,-2026,1,115,-32513,4351,3072,0
1776861191153000,0,0,28630,40,-2031,-3,109,-32257,6399,3072,0
1776861191153000,0,0,30630,40,-2031,-6,84,-32513,8703,3840,0
1776861193807069,-2028,-3,-184,-128,32,15,0,0,0,0,0
1776861193809069,-2028,0,-186,-127,23,14,0,0,0,0,0
1776861193811069,-2028,-4,-168,-129,13,15,0,0,0,0,0
1776861193813069,-2037,-7,-154,-129,7,16,0,0,0,0,0
1776861193815069,-2033,-6,-154,-129,13,16,0,0,0,0,0
1776861193817069,-2029,4,-149,-128,22,17,0,0,0,0,0
1776861193819068,-2033,3,-169,-127,27,18,0,0,0,0,0
1776861193821068,-2034,2,-175,-127,28,16,0,0,0,0,0
1776861193823068,-2047,8,-170,-129,26,14,0,0,0,0,0
1776861193825068,-2047,5,-157,-129,24,13,0,0,0,0,0
1776861193827068,-2045,-3,-145,-129,24,13,102,10453,4096,-1032,255
1776865477665990,27,15,0,0,0,0,54,10461,7168,504,0
1776865477797055,32,17,0,0,0,0,6,10469,8448,248,0
1776865477731504,35,18,0,0,0,0,213,10476,10752,1784,0
1776865477731509,33,19,0,0,0,0,165,10484,14848,3320,0
1776865477797040,26,19,0,0,0,0,117,10492,14336,2552,0
1776865477665975,20,17,0,0,0,0,68,10500,11520,1272,0
1776865477600458,19,17,0,0,0,0,20,10508,8448,760,0
1776865477731542,20,17,0,0,0,0,228,10515,6400,760,0
1776865477797062,25,15,0,0,0,0,180,10523,5632,504,0
1776865477731533,31,14,0,0,0,0,132,10531,4608,1016,0
1776865477731514,31,14,11094,41,-2035,-1,75,32767,7167,3072,0
1776861191153000,0,0,13094,41,-2033,-1,77,-32513,6399,3328,0
1776861191153000,0,0,15094,41,-2026,-5,79,32511,5631,4352,0
1776861191153000,0,0,17094,41,-2024,-10,83,-32513,5887,4352,0
1776861191153000,0,0,19094,41,-2011,-7,88,-32513,6399,4096,0
1776861191153000,0,0,21093,41,-2014,2,87,32767,6655,4864,0
1776861191153000,0,0,23093,41,-2014,10,84,32767,7167,5120,0
1776861191153000,0,0,25093,41,-2013,11,89,32511,6911,4608,0
1776861191153000,0,0,27093,41,-2018,9,94,32767,6655,4352,0
1776861191153000,0,0,29092,41,-2020,5,99,-32513,6399,4864,0
1776861191153000,0,0,31092,41,-2018,0,92,-32513,6399,4352,0
1776861193873070,-2020,0,-168,-129,26,15,0,0,0,0,0
1776861193875070,-2021,2,-169,-128,27,14,0,0,0,0,0
1776861193877070,-2023,3,-180,-127,28,15,0,0,0,0,0
1776861193879070,-2022,0,-186,-128,28,14,0,0,0,0,0
1776861193881069,-2026,-2,-183,-129,25,15,0,0,0,0,0
1776861193883069,-2025,1,-170,-129,22,17,0,0,0,0,0
1776861193885069,-2022,3,-163,-130,18,18,0,0,0,0,0
1776861193887069,-2023,1,-156,-130,20,17,0,0,0,0,0
1776861193889069,-2024,4,-151,-128,22,18,0,0,0,0,0
1776861193891069,-2028,4,-154,-129,24,18,0,0,0,0,0
1776861193893069,-2026,5,-167,-129,27,17,52,10711,3840,-520,255
1776865477862599,26,15,0,0,0,0,4,10719,3584,-264,255
1776865477862594,27,15,0,0,0,0,212,10726,2816,248,0
1776865477862582,28,16,0,0,0,0,164,10734,3584,1016,0
1776865477797050,29,14,0,0,0,0,118,10742,6656,-520,255
1776865477731517,26,15,0,0,0,0,70,10750,7680,-8,255
1776865477665993,25,16,0,0,0,0,22,10758,8448,760,0
1776865477534919,24,16,0,0,0,0,229,10765,8448,2296,0
1776865477731526,23,16,0,0,0,0,181,10773,7680,3064,0
1776865477665986,25,15,0,0,0,0,133,10781,8192,760,0
1776865477665978,25,14,0,0,0,0,84,10789,8192,760,0
1776865477731514,25,14,11556,42,-2017,2,90,32767,6655,3584,0
1776861191153000,0,0,13556,42,-2023,2,91,32511,6911,3840,0
1776861191153000,0,0,15559,42,-2024,2,88,-32513,7167,4096,0
1776861191153000,0,0,17559,42,-2025,1,88,32511,7167,4096,0
1776861191153000,0,0,19559,42,-2025,-3,84,32511,5887,4352,0
1776861191153000,0,0,21558,42,-2021,-5,89,-32513,5631,3840,0
1776861191153000,0,0,23558,42,-2023,1,105,32767,5631,4096,0
1776861191153000,0,0,25558,42,-2019,5,111,32511,6143,4608,0
1776861191153000,0,0,27557,42,-2016,11,101,32511,7679,5120,0
1776861191153000,0,0,29557,42,-2015,10,97,-32513,7935,5376,0
1776861191153000,0,0,31557,42,-2020,7,95,-32257,6911,4864,0
1776861193939068,-2023,5,-166,-126,26,17,0,0,0,0,0
1776861193941068,-2030,6,-165,-129,26,16,0,0,0,0,0
1776861193943068,-2027,2,-165,-129,26,17,0,0,0,0,0
1776861193945068,-2027,-3,-166,-127,24,17,0,0,0,0,0
1776861193947070,-2029,-3,-161,-129,26,16,0,0,0,0,0
1776861193949070,-2027,-2,-162,-129,25,17,0,0,0,0,0
1776861193951070,-2025,5,-156,-129,24,17,0,0,0,0,0
1776861193953070,-2024,-1,-159,-128,23,15,0,0,0,0,0
1776861193955070,-2023,1,-163,-128,24,16,0,0,0,0,0
1776861193957069,-2024,-1,-169,-128,25,16,0,0,0,0,0
1776861193959069,-2024,-5,-171,-127,25,17,4,10969,5888,-264,255
1776865477862596,24,18,0,0,0,0,212,10976,5632,-1032,255
1776865477797061,23,18,0,0,0,0,164,10984,5632,-776,255
1776865477797067,23,19,0,0,0,0,116,10992,6912,-1032,255
1776865477797059,25,18,0,0,0,0,68,11000,6912,504,0
1776865477797058,26,17,0,0,0,0,22,11008,7168,248,0
1776865477731533,27,17,0,0,0,0,230,11015,7424,-264,255
1776865477665994,24,16,0,0,0,0,182,11023,5888,-520,255
1776865477862607,23,15,0,0,0,0,134,11031,6144,248,0
1776865477797064,24,15,0,0,0,0,85,11039,6912,248,0
1776865477600448,25,16,0,0,0,0,36,11047,6912,1016,0
1776865477665978,25,16,-5644,43,-2033,-1,92,-32257,5887,5120,0
1776861191153000,0,0,-3644,43,-2030,2,89,-32513,6655,4608,0
1776861191153000,0,0,-1644,43,-2031,-2,90,32511,7167,4352,0
1776861191153000,0,0,356,44,-2030,3,84,32511,7679,4608,0
1776861191153000,0,0,2356,44,-2027,-4,91,32767,6911,4864,0
1776861191153000,0,0,4356,44,-2027,1,100,-32513,6143,4352,0
1776861191153000,0,0,6359,44,-2019,-3,100,-32513,6143,4352,0
1776861191153000,0,0,8358,44,-2020,-1,96,32767,6143,4608,0
1776861191153000,0,0,10358,44,-2020,6,93,-32513,7167,4352,0
1776861191153000,0,0,12358,44,-2013,4,89,-32257,7423,4352,0
1776861191153000,0,0,14358,44,-2019,1,94,-32513,6911,4608,0
1776861194052941,-2020,3,-164,-130,24,19,0,0,0,0,0
1776861194054941,-2018,0,-166,-130,22,16,0,0,0,0,0
1776861194056940,-2018,3,-166,-129,22,16,0,0,0,0,0
1776861194058940,-2018,3,-159,-130,25,16,0,0,0,0,0
1776861194060940,-2022,-4,-165,-129,26,15,0,0,0,0,0
1776861194062943,-2022,-6,-162,-129,23,15,0,0,0,0,0
1776861194064943,-2026,-4,-171,-130,24,14,0,0,0,0,0
1776861194066943,-2022,0,-163,-128,25,16,0,0,0,0,0
1776861194068942,-2031,4,-165,-129,25,17,0,0,0,0,0
1776861194070942,-2027,7,-172,-129,25,15,0,0,0,0,0
1776861194072942,-2031,9,-170,-128,26,14,213,11413,5888,1016,0
1776865477731514,26,16,0,0,0,0,165,11421,7168,-1544,255
1776865477731525,24,14,0,0,0,0,117,11429,6144,-520,255
1776865477665991,25,15,0,0,0,0,69,11437,6912,-264,255
1776865477665984,23,15,0,0,0,0,20,11445,5888,1016,0
1776865477665980,25,15,0,0,0,0,228,11452,5888,1016,0
1776865477731517,26,15,0,0,0,0,180,11460,5888,1016,0
1776865477797066,25,15,0,0,0,0,135,11468,6400,1272,0
1776865477665974,25,15,0,0,0,0,86,11476,5376,1016,0
1776865477600442,23,16,0,0,0,0,38,11484,6144,2296,0
1776865477600459,23,17,0,0,0,0,245,11491,6656,1016,0
1776865477731523,25,14,-5179,44,-2028,9,90,32767,6911,3584,0
1776861191153000,0,0,-3179,44,-2029,4,86,32767,6655,4096,0
1776861191153000,0,0,-1179,44,-2026,0,91,-32257,6655,4096,0
1776861191153000,0,0,820,45,-2030,-2,84,32767,5887,4096,0
1776861191153000,0,0,2820,45,-2026,-3,91,32511,5631,4352,0
1776861191153000,0,0,4820,45,-2026,-1,90,32767,6655,4608,0
1776861191153000,0,0,6820,45,-2028,-2,84,32767,6655,4608,0
1776861191153000,0,0,8820,45,-2030,0,90,32511,6911,4352,0
1776861191153000,0,0,10822,45,-2029,-2,84,32767,6655,4352,0
1776861191153000,0,0,12822,45,-2026,4,99,32511,6911,4352,0
1776861191153000,0,0,14822,45,-2030,7,87,32511,6911,3840,0
1776861194118941,-2024,3,-168,-129,27,17,0,0,0,0,0
1776861194120941,-2020,-2,-167,-128,27,18,0,0,0,0,0
1776861194122941,-2021,0,-172,-130,27,18,0,0,0,0,0
1776861194124940,-2018,4,-172,-130,26,17,0,0,0,0,0
1776861194126940,-2020,-2,-172,-129,24,17,0,0,0,0,0
1776861194128940,-2023,-3,-171,-128,25,17,0,0,0,0,0
1776861194130940,-2020,2,-171,-129,27,18,0,0,0,0,0
1776861194132940,-2018,2,-170,-129,24,16,0,0,0,0,0
1776861194134940,-2015,1,-165,-129,24,17,0,0,0,0,0
1776861194136940,-2018,-3,-167,-128,23,18,0,0,0,0,0
1776861194138943,-2015,3,-161,-129,24,17,166,11671,8960,1016,0
1776865477797061,25,15,0,0,0,0,118,11679,6656,1016,0
1776865477731523,23,15,0,0,0,0,70,11687,6144,1272,0
1776865477862598,23,16,0,0,0,0,22,11695,5632,2040,0
1776865477731530,23,15,0,0,0,0,230,11702,5120,1528,0
1776865477862603,25,14,0,0,0,0,182,11710,6400,-8,255
1776865477928120,27,16,0,0,0,0,134,11718,7424,504,0
1776865477862589,26,17,0,0,0,0,86,11726,6912,248,0
1776865477731536,24,16,0,0,0,0,37,11734,6144,-8,255
1776865477665988,25,16,0,0,0,0,245,11741,7168,760,0
1776865477731523,25,16,0,0,0,0,197,11749,6656,248,0
1776865477797057,28,16,-4716,45,-2022,-4,90,-32513,7679,4352,0
1776861191153000,0,0,-2716,45,-2022,-2,91,32511,6655,4352,0
1776861191153000,0,0,-716,45,-2027,1,92,32767,6143,3584,0
1776861191153000,0,0,1286,46,-2026,-4,93,-32257,6655,3328,0
1776861191153000,0,0,3286,46,-2019,-1,91,-32513,7167,3840,0
1776861191153000,0,0,5286,46,-2023,-4,90,32767,7679,4096,0
1776861191153000,0,0,7285,46,-2030,-4,83,-32513,7167,4096,0
1776861191153000,0,0,9285,46,-2025,0,88,-32257,6655,4096,0
1776861191153000,0,0,11284,46,-2024,0,92,-32513,6143,4352,0
1776861191153000,0,0,13284,46,-2028,5,102,-32001,6143,4608,0
1776861191153000,0,0,15284,46,-2030,1,90,-32513,6911,4608,0
1776861194184942,-2030,2,-173,-128,26,18,0,0,0,0,0
1776861194186942,-2022,1,-181,-127,25,18,0,0,0,0,0
1776861194188942,-2024,-1,-180,-129,25,19,0,0,0,0,0
1776861194190941,-2019,5,-180,-129,25,17,0,0,0,0,0
1776861194192941,-2020,2,-175,-129,27,17,0,0,0,0,0
1776861194194941,-2018,-2,-167,-130,24,16,0,0,0,0,0
1776861194196941,-2022,-2,-158,-129,23,17,0,0,0,0,0
1776861194198940,-2023,7,-158,-130,23,18,0,0,0,0,0
1776861194200940,-2020,10,-160,-128,25,17,0,0,0,0,0
1776861194202940,-2015,5,-167,-129,28,17,0,0,0,0,0
1776861194204940,-2017,-1,-173,-129,27,17,116,11929,7936,504,0
1776865477731520,23,17,0,0,0,0,68,11937,7936,1272,0
1776865477731515,23,17,0,0,0,0,20,11945,7680,2040,0
1776865477731524,25,18,0,0,0,0,228,11952,8960,1272,0
1776865477928128,27,18,0,0,0,0,180,11960,8192,1016,0
1776865477862587,27,17,0,0,0,0,132,11968,8448,-8,255
1776865477797050,24,17,0,0,0,0,84,11976,8704,248,0
1776865477797056,23,16,0,0,0,0,38,11984,7680,-264,255
1776865477665985,23,15,0,0,0,0,246,11991,6400,-8,255
1776865477665983,25,16,0,0,0,0,198,11999,5120,1528,0
1776865477600441,26,16,0,0,0,0,150,12007,6656,248,0
1776865477731521,27,16,-4251,46,-2025,-3,88,-32513,7167,4096,0
1776861191153000,0,0,-2251,46,-2019,-1,101,-32257,6655,4608,0
1776861191153000,0,0,-251,46,-2021,4,99,-32513,6399,4608,0
1776861191153000,0,0,1749,47,-2024,7,91,32767,6655,4352,0
1776861191153000,0,0,3749,47,-2023,5,88,32511,7167,4352,0
1776861191153000,0,0,5749,47,-2025,3,89,31999,7167,4352,0
1776861191153000,0,0,7749,47,-2028,-1,89,32511,6399,4096,0
1776861191153000,0,0,9749,47,-2026,-1,96,32767,6143,4096,0
1776861191153000,0,0,11749,47,-2031,-1,102,32767,6399,4352,0
1776861191153000,0,0,13749,47,-2032,-2,98,32767,6655,4352,0
1776861191153000,0,0,15749,47,-2029,-4,95,-32513,7167,3840,0
1776861194250940,-2028,-3,-160,-131,26,16,0,0,0,0,0
1776861194252940,-2021,-4,-154,-128,23,17,0,0,0,0,0
1776861194254940,-2025,-2,-155,-128,25,16,0,0,0,0,0
1776861194256940,-2028,-2,-161,-129,26,16,0,0,0,0,0
1776861194258942,-2028,-4,-165,-129,26,15,0,0,0,0,0
1776861194260942,-2021,1,-171,-128,25,16,0,0,0,0,0
1776861194262942,-2019,3,-172,-127,25,17,0,0,0,0,0
1776861194264942,-2025,-1,-165,-127,25,16,0,0,0,0,0
1776861194266942,-2026,4,-158,-128,25,17,0,0,0,0,0
1776861194268942,-2021,-1,-156,-129,24,17,0,0,0,0,0
1776861194270942,-2024,-1,-163,-129,25,17,69,12187,6912,-8,255
1776865477665980,27,16,0,0,0,0,21,12195,6912,248,0
1776865477797050,23,15,0,0,0,0,229,12202,6656,1528,0
1776865477862596,23,15,0,0,0,0,180,12210,5376,504,0
1776865477731526,25,16,0,0,0,0,132,12218,6656,760,0
1776865477731533,26,17,0,0,0,0,84,12226,8192,248,0
1776865477797073,27,16,0,0,0,0,38,12234,8448,2040,0
1776865477731523,27,15,0,0,0,0,246,12241,6144,248,0
1776865477862592,26,17,0,0,0,0,198,12249,8192,-264,255
1776865477797057,26,16,0,0,0,0,149,12257,8192,1016,0
1776865477797068,26,16,0,0,0,0,101,12265,7680,1272,0
1776865477731517,25,18,-3788,47,-2018,6,95,32511,6655,4608,0
1776861191153000,0,0,-1788,47,-2014,1,92,-32513,7167,4352,0
1776861191153000,0,0,212,48,-2014,5,93,-32257,7167,4096,0
1776861191153000,0,0,2214,48,-2025,2,94,32255,6399,3584,0
1776861191153000,0,0,4214,48,-2020,4,94,32767,6655,3840,0
1776861191153000,0,0,6214,48,-2022,-1,94,-32513,6655,4096,0
1776861191153000,0,0,8214,48,-2030,1,93,32767,6655,4096,0
1776861191153000,0,0,10213,48,-2027,-2,98,-32513,6655,4352,0
1776861191153000,0,0,12213,48,-2027,0,96,32767,6399,4352,0
1776861191153000,0,0,14213,48,-2020,1,92,-32513,6911,4352,0
1776861191153000,0,0,16212,48,-2019,-1,83,-32513,7167,4096,0
1776861194316942,-2029,2,-170,-128,26,15,0,0,0,0,0
1776861194318942,-2026,4,-170,-127,26,15,0,0,0,0,0
1776861194320942,-2030,0,-168,-128,22,15,0,0,0,0,0
1776861194322941,-2028,-2,-166,-128,24,16,0,0,0,0,0
1776861194324941,-2022,1,-161,-128,26,16,0,0,0,0,0
1776861194326940,-2025,3,-163,-128,27,17,0,0,0,0,0
1776861194328940,-2023,0,-158,-126,28,17,0,0,0,0,0
1776861194330942,-2023,2,-157,-128,26,17,0,0,0,0,0
1776861194332942,-2027,2,-164,-128,22,16,0,0,0,0,0
1776861194334942,-2029,6,-166,-128,25,15,0,0,0,0,0
1776861194336942,-2026,5,-173,-128,28,18,21,12445,6912,-520,255
1776865477731522,28,17,0,0,0,0,229,12452,7168,504,0
1776865477862587,25,17,0,0,0,0,181,12460,7168,248,0
1776865477862585,22,17,0,0,0,0,132,12468,5888,1528,0
1776865477797051,22,17,0,0,0,0,84,12476,5632,248,0
1776865477797050,24,17,0,0,0,0,39,12484,5632,1016,0
1776865477731518,25,15,0,0,0,0,246,12491,6656,1272,0
1776865477797057,25,15,0,0,0,0,198,12499,7424,504,0
1776865477862595,23,16,0,0,0,0,150,12507,5888,248,0
1776865477862596,24,16,0,0,0,0,101,12515,6144,760,0
1776865477731529,26,17,0,0,0,0,53,12523,6144,1784,0
1776865477731519,27,18,-3324,48,-2024,2,93,-32257,6911,4608,0
1776861191153000,0,0,-1324,48,-2022,1,93,32767,6655,4352,0
1776861191153000,0,0,676,49,-2020,2,84,32255,6655,4352,0
1776861191153000,0,0,2676,49,-2024,-4,94,32255,6399,4096,0
1776861191153000,0,0,4678,49,-2019,-4,98,-32513,6911,3840,0
1776861191153000,0,0,6678,49,-2016,4,92,-32257,7167,4096,0
1776861191153000,0,0,8678,49,-2018,5,89,-32257,6911,3584,0
1776861191153000,0,0,10678,49,-2018,4,87,32767,7167,3584,0
1776861191153000,0,0,12678,49,-2016,5,90,-32513,6911,3584,0
1776861191153000,0,0,14678,49,-2020,5,90,-32513,6143,4096,0
1776861191153000,0,0,16678,49,-2020,4,81,32767,6143,4608,0
1776861194430707,-2016,-6,-165,-128,26,19,0,0,0,0,0
1776861194432707,-2019,-2,-170,-128,24,18,0,0,0,0,0
1776861194434707,-2018,3,-173,-128,25,16,0,0,0,0,0
1776861194436707,-2017,6,-173,-129,26,16,0,0,0,0,0
1776861194438707,-2019,8,-172,-129,26,17,0,0,0,0,0
1776861194440707,-2025,5,-162,-129,26,16,0,0,0,0,0
1776861194442707,-2024,4,-162,-129,26,17,0,0,0,0,0
1776861194444707,-2019,3,-164,-128,23,16,0,0,0,0,0
1776861194446707,-2021,1,-169,-128,22,16,0,0,0,0,0
1776861194448709,-2020,4,-162,-129,23,16,0,0,0,0,0
1776861194450709,-2021,5,-168,-129,25,17,124,12889,6656,1272,0
1776865477797063,24,17,0,0,0,0,76,12897,6912,-264,255
1776865477862592,26,15,0,0,0,0,28,12905,6656,1272,0
1776865477797064,25,15,0,0,0,0,236,12912,7680,1272,0
1776865477797067,22,15,0,0,0,0,187,12920,6144,1016,0
1776865477665989,22,16,0,0,0,0,139,12928,6656,1272,0
1776865477731527,24,18,0,0,0,0,91,12936,6144,760,0
1776865477731532,26,18,0,0,0,0,46,12944,7168,1016,0
1776865477665995,27,15,0,0,0,0,254,12951,5888,1016,0
1776865477600451,27,14,0,0,0,0,205,12959,5120,760,0
1776865477731529,27,16,0,0,0,0,157,12967,6144,760,0
1776865477797055,28,16,-20628,50,-2023,0,88,32767,7423,4352,0
1776861191153000,0,0,-18629,50,-2028,-2,89,-32257,6399,4096,0
1776861191153000,0,0,-16629,50,-2029,-1,91,32767,5887,3584,0
1776861191153000,0,0,-14629,50,-2029,-2,91,32767,6399,4096,0
1776861191153000,0,0,-12627,50,-2025,3,83,32767,6655,3840,0
1776861191153000,0,0,-10627,50,-2024,2,87,32767,6911,3584,0
1776861191153000,0,0,-8627,50,-2027,-3,90,-32513,6655,4096,0
1776861191153000,0,0,-6627,50,-2026,1,92,32767,6399,4096,0
1776861191153000,0,0,-4627,50,-2024,-2,100,32511,6399,3840,0
1776861191153000,0,0,-2628,50,-2022,4,95,32767,6911,4096,0
1776861191153000,0,0,-628,50,-2018,4,92,32767,6911,4608,0
1776861194496707,-2016,-3,-166,-129,26,17,0,0,0,0,0
1776861194498707,-2015,0,-168,-129,23,16,0,0,0,0,0
1776861194500709,-2008,-2,-166,-129,24,14,0,0,0,0,0
1776861194502709,-2012,-2,-168,-130,27,14,0,0,0,0,0
1776861194504709,-2016,3,-169,-129,28,15,0,0,0,0,0
1776861194506709,-2019,6,-168,-127,28,16,0,0,0,0,0
1776861194508708,-2023,3,-171,-128,24,18,0,0,0,0,0
1776861194510708,-2035,-1,-169,-129,20,17,0,0,0,0,0
1776861194512708,-2034,-6,-154,-128,21,15,0,0,0,0,0
1776861194514708,-2030,0,-161,-129,24,15,0,0,0,0,0
1776861194516707,-2033,-3,-171,-129,26,17,77,13147,4864,-8,255
1776865477797051,25,17,0,0,0,0,29,13155,5120,504,0
1776865477862591,23,16,0,0,0,0,237,13162,8192,248,0
1776865477797057,21,17,0,0,0,0,188,13170,6656,1016,0
1776865477862588,23,16,0,0,0,0,140,13178,6656,1528,0
1776865477665980,25,16,0,0,0,0,92,13186,5376,1272,0
1776865477731517,24,18,0,0,0,0,43,13194,5888,504,0
1776865477797062,27,17,0,0,0,0,251,13201,6912,-264,255
1776865477731527,27,17,0,0,0,0,203,13209,5120,-8,255
1776865477731527,27,17,0,0,0,0,155,13217,6144,-8,255
1776865477731536,26,18,0,0,0,0,107,13225,6400,-8,255
1776865477797065,25,16,-20163,51,-2023,-1,87,32767,6399,3840,0
1776861191153000,0,0,-18163,51,-2026,-1,98,32511,6143,3840,0
1776861191153000,0,0,-16163,51,-2028,-2,93,32511,5887,4352,0
1776861191153000,0,0,-14163,51,-2020,-2,93,32511,6399,4096,0
1776861191153000,0,0,-12164,51,-2018,-2,91,-32513,6655,4096,0
1776861191153000,0,0,-10164,51,-2017,2,91,-32513,6399,4096,0
1776861191153000,0,0,-8164,51,-2017,-2,90,-32001,5887,4352,0
1776861191153000,0,0,-6165,51,-2021,-5,92,-32513,6143,4352,0
1776861191153000,0,0,-4165,51,-2017,4,94,32511,6911,4352,0
1776861191153000,0,0,-2165,51,-2017,7,87,32767,6399,4352,0
1776861191153000,0,0,-165,51,-2023,3,94,-32513,6399,4352,0
1776861194562709,-2025,5,-159,-127,26,15,0,0,0,0,0
1776861194564709,-2022,5,-160,-127,28,14,0,0,0,0,0
1776861194566709,-2021,2,-155,-128,26,15,0,0,0,0,0
1776861194568709,-2024,1,-175,-129,25,15,0,0,0,0,0
1776861194570708,-2021,1,-169,-128,25,15,0,0,0,0,0
1776861194572708,-2018,-1,-165,-128,27,15,0,0,0,0,0
1776861194574708,-2016,5,-164,-130,27,17,0,0,0,0,0
1776861194576708,-2016,6,-173,-129,26,17,0,0,0,0,0
1776861194578707,-2015,3,-175,-130,24,16,0,0,0,0,0
1776861194580707,-2020,4,-163,-129,23,17,0,0,0,0,0
1776861194582707,-2024,1,-158,-129,25,18,29,13405,5376,-1032,255
1776865477665993,26,17,0,0,0,0,237,13412,5120,760,0
1776865477797064,24,16,0,0,0,0,189,13420,4096,1272,0
1776865477797061,22,16,0,0,0,0,140,13428,4096,1016,0
1776865477731529,25,16,0,0,0,0,92,13436,4608,1272,0
1776865477731527,26,17,0,0,0,0,44,13444,4096,1272,0
1776865477731519,25,16,0,0,0,0,252,13451,5376,1272,0
1776865477731521,24,14,0,0,0,0,204,13459,5888,248,0
1776865477665992,25,14,0,0,0,0,155,13467,5120,248,0
1776865477600445,25,17,0,0,0,0,110,13475,6144,504,0
1776865477797059,23,17,0,0,0,0,61,13483,6656,1272,0
1776865477797055,22,19,-19700,52,-2019,3,79,-32513,6399,4864,0
1776861191153000,0,0,-17700,52,-2017,-1,82,32255,6399,4608,0
1776861191153000,0,0,-15701,52,-2019,-1,93,32511,6143,4352,0
1776861191153000,0,0,-13701,52,-2025,-4,90,32767,5631,4352,0
1776861191153000,0,0,-11701,52,-2029,-1,97,-32513,5887,4096,0
1776861191153000,0,0,-9698,52,-2024,1,88,-32257,6655,3840,0
1776861191153000,0,0,-7701,52,-2024,1,75,-32257,7167,3840,0
1776861191153000,0,0,-5701,52,-2021,4,78,-32257,6911,4096,0
1776861191153000,0,0,-3701,52,-2019,8,80,32767,6399,3840,0
1776861191153000,0,0,-1699,52,-2022,6,90,32767,5887,3840,0
1776861191153000,0,0,301,53,-2019,3,87,-32257,6655,4096,0
1776861194628708,-2015,0,-167,-128,26,19,0,0,0,0,0
1776861194630707,-2009,6,-167,-128,25,21,0,0,0,0,0
1776861194632707,-2010,6,-172,-128,24,20,0,0,0,0,0
1776861194634707,-2017,3,-173,-128,25,17,0,0,0,0,0
1776861194636707,-2018,2,-158,-128,27,15,0,0,0,0,0
1776861194638707,-2019,0,-161,-128,26,16,0,0,0,0,0
1776861194640710,-2020,2,-166,-128,25,16,0,0,0,0,0
1776861194642710,-2020,1,-168,-130,23,15,0,0,0,0,0
1776861194644710,-2016,1,-174,-130,22,14,0,0,0,0,0
1776861194646710,-2014,2,-167,-129,23,15,0,0,0,0,0
1776861194648709,-2016,-4,-174,-129,23,15,237,13662,6144,-8,255
1776865477797050,25,15,0,0,0,0,189,13670,8448,504,0
1776865477731527,25,16,0,0,0,0,141,13678,7168,1272,0
1776865477731523,24,15,0,0,0,0,93,13686,5632,1528,0
1776865477862597,24,16,0,0,0,0,45,13694,5888,-776,255
1776865477862595,24,17,0,0,0,0,252,13701,5632,-8,255
1776865477731525,26,17,0,0,0,0,204,13709,7168,760,0
1776865477731517,27,15,0,0,0,0,156,13717,4864,248,0
1776865477665977,28,16,0,0,0,0,107,13725,4352,504,0
1776865477665989,27,16,0,0,0,0,59,13733,5376,248,0
1776865477665990,23,17,0,0,0,0,14,13741,5632,1784,0
1776865477731519,23,17,-19235,53,-2025,4,90,32511,7167,4352,0
1776861191153000,0,0,-17235,53,-2025,0,83,32767,7167,4096,0
1776861191153000,0,0,-15236,53,-2026,3,94,32767,6655,4096,0
1776861191153000,0,0,-13236,53,-2023,1,91,32767,5887,4352,0
1776861191153000,0,0,-11236,53,-2022,0,96,-32257,6399,4352,0
1776861191153000,0,0,-9237,53,-2028,3,98,-32257,6143,4096,0
1776861191153000,0,0,-7237,53,-2026,-1,93,-32513,6655,4352,0
1776861191153000,0,0,-5237,53,-2031,-1,93,-32513,6911,4352,0
1776861191153000,0,0,-3234,53,-2026,-6,99,32767,6399,3840,0
1776861191153000,0,0,-1234,53,-2022,-4,86,32255,6399,4096,0
1776861191153000,0,0,765,54,-2017,1,87,32767,6655,4096,0
1776861194694708,-2018,-4,-168,-128,25,15,0,0,0,0,0
1776861194696708,-2023,-3,-165,-128,25,14,0,0,0,0,0
1776861194698708,-2021,0,-160,-127,24,16,0,0,0,0,0
1776861194700707,-2020,0,-161,-126,24,17,0,0,0,0,0
1776861194702710,-2020,0,-163,-129,25,17,0,0,0,0,0
1776861194704709,-2021,4,-171,-128,26,17,0,0,0,0,0
1776861194706709,-2025,3,-166,-127,26,14,0,0,0,0,0
1776861194708709,-2021,-3,-161,-129,25,16,0,0,0,0,0
1776861194710709,-2024,0,-154,-128,27,18,0,0,0,0,0
1776861194712708,-2019,-4,-159,-129,26,17,0,0,0,0,0
1776861194714708,-2009,-5,-166,-128,25,15,187,13920,10496,1528,0
1776865477862594,26,15,0,0,0,0,139,13928,10240,2040,0
1776865477797062,29,15,0,0,0,0,91,13936,8960,1272,0
1776865477731520,30,16,0,0,0,0,43,13944,7424,760,0
1776865477731513,28,15,0,0,0,0,251,13951,7168,1784,0
1776865477665985,26,15,0,0,0,0,206,13959,6656,1528,0
1776865477797064,23,14,0,0,0,0,158,13967,5632,-8,255
1776865477862597,23,14,0,0,0,0,110,13975,3840,-264,255
1776865477731528,26,16,0,0,0,0,61,13983,2816,248,0
1776865477665987,25,16,0,0,0,0,13,13991,5376,-264,255
1776865477797050,24,17,0,0,0,0,221,13998,7680,248,0
1776865477797046,25,17,-18772,54,-2006,-4,87,32767,6399,4096,0
1776861191153000,0,0,-16772,54,-1999,-2,95,32767,6143,4352,0
1776861191153000,0,0,-14772,54,-2001,9,91,32767,6399,4096,0
1776861191153000,0,0,-12772,54,-2015,11,92,-32513,7679,3584,0
1776861191153000,0,0,-10773,54,-2027,10,97,32511,7935,3584,0
1776861191153000,0,0,-8773,54,-2041,2,87,32767,7423,4096,0
1776861191153000,0,0,-6773,54,-2058,-9,90,32767,6143,4096,0
1776861191153000,0,0,-4773,54,-2055,-10,93,32767,4863,3840,0
1776861191153000,0,0,-2773,54,-2056,-8,99,-32513,4607,3584,0
1776861191153000,0,0,-773,54,-2057,-12,92,-32513,6143,3584,0
1776861191153000,0,0,1227,55,-2054,-3,79,-32257,7167,3840,0
1776861194760709,-2039,2,-167,-128,25,16,0,0,0,0,0
1776861194762709,-2028,10,-166,-128,21,15,0,0,0,0,0
1776861194764709,-2024,1,-154,-128,19,17,0,0,0,0,0
1776861194766709,-2020,0,-149,-129,20,18,0,0,0,0,0
1776861194768708,-2023,-3,-150,-130,24,20,0,0,0,0,0
1776861194770708,-2025,3,-155,-128,29,20,0,0,0,0,0
1776861194772708,-2025,-2,-155,-129,31,22,0,0,0,0,0
1776861194774708,-2034,-1,-173,-129,30,22,0,0,0,0,0
1776861194776708,-2032,-3,-164,-128,26,20,0,0,0,0,0
1776861194778707,-2028,5,-165,-130,24,19,0,0,0,0,0
1776861194780707,-2024,1,-161,-130,22,19,78,14376,5120,-8,255
1776865477600456,30,13,0,0,0,0,30,14384,6400,1016,0
1776865477731518,29,13,0,0,0,0,238,14391,7936,1528,0
1776865477665982,30,15,0,0,0,0,190,14399,9728,2808,0
1776865477797058,30,18,0,0,0,0,142,14407,12032,2040,0
1776865477928124,28,19,0,0,0,0,94,14415,15360,2296,0
1776865477797063,24,17,0,0,0,0,49,14423,18432,2040,0
1776865477797076,21,17,0,0,0,0,254,14430,17152,760,0
1776865477731535,22,16,0,0,0,0,208,14438,10752,3064,0
1776865477665987,31,16,0,0,0,0,160,14446,256,4600,0
1776865477600432,40,15,0,0,0,0,112,14454,-8704,2807,0
1776865477665966,36,16,32319,56,-2097,-3,68,32767,5375,3840,0
1776861191153000,0,0,-31217,56,-2088,-25,92,32767,767,3072,0
1776861191153000,0,0,-29217,56,-2072,-32,113,-32513,-257,2559,0
1776861191153000,0,0,-27218,56,-2049,-23,114,-31745,3327,2304,0
1776861191153000,0,0,-25218,56,-2029,-7,96,-31745,7935,3072,0
1776861191153000,0,0,-23218,56,-2015,8,64,-31489,10751,4352,0
1776861191153000,0,0,-21218,56,-2000,21,58,-32001,10239,5888,0
1776861191153000,0,0,-19218,56,-1986,16,76,-32513,6399,6912,0
1776861191153000,0,0,-17218,56,-1979,15,114,32255,1535,6656,0
1776861191153000,0,0,-15215,56,-1981,7,140,32255,767,6144,0
1776861191153000,0,0,-13215,56,-1999,2,138,32767,4863,5888,0
1776861194877336,-2015,-1,-144,-129,46,19,0,0,0,0,0
1776861194879336,-2030,0,-199,-127,62,16,0,0,0,0,0
1776861194881335,-2038,8,-215,-128,56,15,0,0,0,0,0
1776861194883335,-2042,10,-197,-129,34,13,0,0,0,0,0
1776861194885335,-2045,-9,-182,-130,17,12,0,0,0,0,0
1776861194887335,-2038,-16,-173,-128,7,13,0,0,0,0,0
1776861194889335,-2024,-8,-153,-127,6,14,0,0,0,0,0
1776861194891335,-2011,1,-142,-128,10,16,0,0,0,0,0
1776861194893335,-2012,7,-145,-127,18,15,0,0,0,0,0
1776861194895334,-2018,10,-166,-128,24,14,0,0,0,0,0
1776861194897334,-2017,4,-175,-127,29,17,32,14634,9728,-264,255
1776865477665980,28,20,0,0,0,0,240,14641,10240,-1800,255
1776865477600448,23,19,0,0,0,0,192,14649,7680,-3336,255
1776865477731535,21,19,0,0,0,0,144,14657,8448,-3336,255
1776865477665995,26,20,0,0,0,0,96,14665,6144,1528,0
1776865477797061,32,20,0,0,0,0,48,14673,6400,2552,0
1776865477731504,35,19,0,0,0,0,0,14681,6656,3832,0
1776865477665972,33,18,0,0,0,0,208,14688,6656,3832,0
1776865477731516,25,16,0,0,0,0,160,14696,6400,2040,0
1776865477731528,18,15,0,0,0,0,112,14704,5888,-8,255
1776865477797074,21,15,0,0,0,0,63,14712,4608,-264,255
1776865477862599,28,15,-32753,57,-2020,2,88,32767,8191,3840,0
1776861191153000,0,0,-30753,57,-2016,3,82,32767,7679,3840,0
1776861191153000,0,0,-28753,57,-2020,-1,84,-32513,5887,3328,0
1776861191153000,0,0,-26753,57,-2029,0,95,-32513,4607,2816,0
1776861191153000,0,0,-24754,57,-2035,0,91,32767,4607,3840,0
1776861191153000,0,0,-22754,57,-2045,6,85,32767,5119,4608,0
1776861191153000,0,0,-20751,57,-2055,0,82,-32513,6143,4608,0
1776861191153000,0,0,-18752,57,-2058,-4,87,-32257,6911,5120,0
1776861191153000,0,0,-16752,57,-2059,-1,74,-32513,6399,4864,0
1776861191153000,0,0,-14752,57,-2050,-4,84,-32257,5631,4096,0
1776861191153000,0,0,-12752,57,-2037,-4,95,-32257,5631,4096,0
1776861194943335,-2027,-4,-151,-127,27,15,0,0,0,0,0
1776861194945335,-2005,0,-152,-127,36,16,0,0,0,0,0
1776861194947335,-1999,5,-163,-128,38,19,0,0,0,0,0
1776861194949334,-1995,12,-173,-130,37,21,0,0,0,0,0
1776861194951334,-1987,14,-185,-129,31,22,0,0,0,0,0
1776861194953334,-1998,6,-172,-129,20,22,0,0,0,0,0
1776861194955334,-2007,0,-168,-131,14,20,0,0,0,0,0
1776861194957334,-2016,-1,-161,-130,15,17,0,0,0,0,0
1776861194959334,-2028,-1,-159,-130,20,16,0,0,0,0,0
1776861194961334,-2034,3,-160,-129,30,15,0,0,0,0,0
1776861194963334,-2032,-2,-169,-128,33,13,240,14891,4864,-8,255
1776865477731506,28,12,0,0,0,0,192,14899,4352,-520,255
1776865477797050,21,12,0,0,0,0,144,14907,4608,248,0
1776865477665993,18,14,0,0,0,0,96,14915,8192,248,0
1776865477600455,20,16,0,0,0,0,47,14923,9984,760,0
1776865477731528,22,18,0,0,0,0,255,14930,9216,1016,0
1776865477928137,23,22,0,0,0,0,207,14938,8448,1528,0
1776865477731533,26,22,0,0,0,0,159,14946,7680,248,0
1776865477665994,28,22,0,0,0,0,111,14954,6656,1272,0
1776865477797065,28,20,0,0,0,0,62,14962,7168,2552,0
1776865477731528,26,18,0,0,0,0,14,14970,6400,2040,0
1776865477862594,25,17,-32288,58,-2023,3,92,-32001,6399,3584,0
1776861191153000,0,0,-30288,58,-2026,3,86,-32513,6399,3584,0
1776861191153000,0,0,-28288,58,-2026,-2,90,-32513,7167,3584,0
1776861191153000,0,0,-26288,58,-2027,-5,78,-32513,7935,3328,0
1776861191153000,0,0,-24288,58,-2017,-5,80,-32513,6911,3584,0
1776861191153000,0,0,-22288,58,-2018,-6,96,-32001,5631,3840,0
1776861191153000,0,0,-20288,58,-2013,1,100,-32001,5119,4096,0
1776861191153000,0,0,-18288,58,-2020,5,109,-32257,5119,4608,0
1776861191153000,0,0,-16288,58,-2025,3,95,32767,5631,4864,0
1776861191153000,0,0,-14288,58,-2029,10,92,-32513,6399,4864,0
1776861191153000,0,0,-12288,58,-2035,2,94,-32257,6655,4608,0
1776861195009335,-2039,2,-169,-129,24,14,0,0,0,0,0
1776861195011335,-2043,-4,-165,-129,23,14,0,0,0,0,0
1776861195013334,-2047,-9,-160,-128,27,15,0,0,0,0,0
1776861195015334,-2043,-7,-166,-129,30,14,0,0,0,0,0
1776861195017334,-2038,-1,-172,-129,29,15,0,0,0,0,0
1776861195019334,-2029,2,-174,-130,26,16,0,0,0,0,0
1776861195021334,-2021,1,-182,-128,25,17,0,0,0,0,0
1776861195023334,-2009,7,-170,-127,22,19,0,0,0,0,0
1776861195025334,-2006,4,-166,-127,20,20,0,0,0,0,0
1776861195027334,-2007,8,-168,-127,22,18,0,0,0,0,0
1776861195029334,-2002,3,-171,-129,25,18,192,15149,10240,504,0
1776865477731524,28,16,0,0,0,0,144,15157,8960,1016,0
1776865477731522,30,16,0,0,0,0,96,15165,7424,1784,0
1776865477731507,28,16,0,0,0,0,48,15173,4864,1528,0
1776865477731513,24,14,0,0,0,0,0,15181,4352,-520,255
1776865477731523,22,13,0,0,0,0,208,15188,5888,-1288,255
1776865477600451,24,14,0,0,0,0,160,15196,7168,-1288,255
1776865477665987,27,16,0,0,0,0,112,15204,7168,-8,255
1776865477731522,26,17,0,0,0,0,64,15212,7424,-264,255
1776865477731530,24,17,0,0,0,0,16,15220,8960,760,0
1776865477665988,23,17,0,0,0,0,224,15227,7936,1272,0
1776865477731522,22,19,-31825,59,-2020,5,89,-32513,6655,4864,0
1776861191153000,0,0,-29825,59,-2015,0,95,32255,6655,5120,0
1776861191153000,0,0,-27825,59,-2021,6,85,31743,7167,4352,0
1776861191153000,0,0,-25825,59,-2032,3,90,32511,6655,3840,0
1776861191153000,0,0,-23825,59,-2039,0,84,32767,6399,3584,0
1776861191153000,0,0,-21826,59,-2038,-1,80,-32513,6399,3328,0
1776861191153000,0,0,-19826,59,-2044,-2,86,-32513,6911,3328,0
1776861191153000,0,0,-17826,59,-2039,-2,99,32767,7423,3840,0
1776861191153000,0,0,-15826,59,-2035,-6,94,32767,7679,3840,0
1776861191153000,0,0,-13826,59,-2024,-1,99,-32513,6655,3584,0
1776861191153000,0,0,-11824,59,-2014,-2,89,-32513,6143,3584,0
1776861195075335,-2008,-1,-166,-127,26,18,0,0,0,0,0
1776861195077335,-2000,5,-170,-127,26,19,0,0,0,0,0
1776861195079335,-2009,5,-177,-129,29,18,0,0,0,0,0
1776861195081335,-2015,6,-185,-129,28,19,0,0,0,0,0
1776861195083335,-2026,2,-178,-127,25,17,0,0,0,0,0
1776861195085335,-2031,1,-164,-128,25,15,0,0,0,0,0
1776861195087335,-2034,-2,-167,-128,26,13,0,0,0,0,0
1776861195089335,-2033,-3,-165,-127,28,11,0,0,0,0,0
1776861195091335,-2034,-1,-173,-129,29,11,0,0,0,0,0
1776861195093334,-2031,-2,-180,-129,29,13,0,0,0,0,0
1776861195095334,-2026,-4,-178,-128,29,13,144,15407,7168,248,0
1776865477665981,25,16,0,0,0,0,96,15415,9472,248,0
1776865477600454,17,18,0,0,0,0,47,15423,9728,-8,255
1776865477665987,19,17,0,0,0,0,255,15430,6656,760,0
1776865477731526,24,16,0,0,0,0,206,15438,3072,248,0
1776865477731518,31,18,0,0,0,0,158,15446,512,248,0
1776865477600430,31,18,0,0,0,0,110,15454,1280,-1288,255
1776865477534898,27,16,0,0,0,0,62,15462,2048,-1544,255
1776865477665981,20,14,0,0,0,0,14,15470,1280,-4104,255
1776865477797058,19,14,0,0,0,0,222,15477,2304,-2056,255
1776865477862600,25,15,0,0,0,0,174,15485,4352,248,0
1776865477731513,30,16,-31360,60,-2029,6,80,-32513,8191,4608,0
1776861191153000,0,0,-29360,60,-2023,9,69,-32257,7935,5120,0
1776861191153000,0,0,-27360,60,-2023,9,81,32767,6399,5376,0
1776861191153000,0,0,-25360,60,-2020,7,99,32767,4863,4864,0
1776861191153000,0,0,-23360,60,-2016,-1,105,32767,4863,4864,0
1776861191153000,0,0,-21360,60,-2020,-1,96,32255,6911,5120,0
1776861191153000,0,0,-19360,60,-2021,1,88,32767,8447,5120,0
1776861191153000,0,0,-17360,60,-2015,2,79,32767,8447,4864,0
1776861191153000,0,0,-15360,60,-2014,5,71,32767,7423,4352,0
1776861191153000,0,0,-13360,60,-2022,6,75,32767,6143,3840,0
1776861191153000,0,0,-11360,60,-2023,6,84,32511,5631,3840,0
1776861195141335,-2021,-3,-164,-129,22,17,0,0,0,0,0
1776861195143335,-2020,0,-166,-129,21,17,0,0,0,0,0
1776861195145335,-2019,-2,-166,-128,24,16,0,0,0,0,0
1776861195147335,-2021,-1,-159,-127,28,15,0,0,0,0,0
1776861195149335,-2020,1,-163,-129,27,16,0,0,0,0,0
1776861195151335,-2016,-4,-169,-128,24,14,0,0,0,0,0
1776861195153335,-2011,0,-168,-128,21,16,0,0,0,0,0
1776861195155335,-2008,-1,-162,-129,20,17,0,0,0,0,0
1776861195157334,-2004,6,-168,-131,21,17,0,0,0,0,0
1776861195159334,-2004,6,-154,-128,27,16,0,0,0,0,0
1776861195161334,-2015,5,-158,-127,28,16,96,15665,6656,1016,0
1776865477797059,28,15,0,0,0,0,48,15673,5888,248,0
1776865477665985,26,13,0,0,0,0,0,15681,5120,-520,255
1776865477731528,24,13,0,0,0,0,208,15688,2816,-1032,255
1776865477797060,22,15,0,0,0,0,160,15696,2304,1016,0
1776865477731523,24,14,0,0,0,0,111,15704,5120,760,0
1776865477731525,27,14,0,0,0,0,63,15712,6656,1528,0
1776865477665989,27,15,0,0,0,0,15,15720,8448,504,0
1776865477665987,25,17,0,0,0,0,223,15727,6400,760,0
1776865477731520,23,18,0,0,0,0,175,15735,5120,504,0
1776865477797063,22,18,0,0,0,0,126,15743,5376,2040,0
1776865477731534,25,18,19730,62,-2025,0,89,32767,6911,3840,0
1776861191153000,0,0,21730,62,-2025,4,92,32767,6911,3840,0
1776861191153000,0,0,23733,62,-2019,3,93,32767,6911,4096,0
1776861191153000,0,0,25732,62,-2023,3,88,-32513,6655,4096,0
1776861191153000,0,0,27732,62,-2023,-1,95,32511,7167,4096,0
1776861191153000,0,0,29732,62,-2021,-3,102,32511,6655,4096,0
1776861191153000,0,0,31732,62,-2023,2,87,-32513,6655,4352,0
1776861191153000,0,0,-31804,62,-2030,1,93,-32513,6399,4608,0
1776861191153000,0,0,-29805,62,-2028,10,93,32767,6143,3840,0
1776861191153000,0,0,-27805,62,-2025,7,85,32511,6399,3840,0
1776861191153000,0,0,-25805,62,-2028,2,92,32511,6399,3584,0
1776861195257962,-2031,-3,-164,-127,24,15,0,0,0,0,0
1776861195259962,-2029,0,-162,-127,25,16,0,0,0,0,0
1776861195261964,-2032,0,-163,-129,28,17,0,0,0,0,0
1776861195263964,-2031,0,-167,-129,27,15,0,0,0,0,0
1776861195265963,-2031,-2,-173,-126,24,15,0,0,0,0,0
1776861195267963,-2033,1,-175,-127,23,16,0,0,0,0,0
1776861195269963,-2029,0,-166,-130,23,16,0,0,0,0,0
1776861195271962,-2024,0,-170,-131,25,17,0,0,0,0,0
1776861195273962,-2022,3,-168,-130,26,18,0,0,0,0,0
1776861195275965,-2021,4,-175,-130,26,17,0,0,0,0,0
1776861195277964,-2022,-1,-163,-131,26,18,243,16120,6144,-776,255
1776865477600452,24,18,0,0,0,0,195,16128,6400,-1032,255
1776865477731521,24,17,0,0,0,0,147,16136,7424,504,0
1776865477797049,26,17,0,0,0,0,98,16144,8960,760,0
1776865477731522,25,18,0,0,0,0,50,16152,8704,1016,0
1776865477665981,24,18,0,0,0,0,2,16160,8704,-8,255
1776865477600454,22,16,0,0,0,0,210,16167,8448,2040,0
1776865477534921,22,17,0,0,0,0,162,16175,8704,1528,0
1776865477600453,23,17,0,0,0,0,114,16183,8960,1272,0
1776865477665983,26,17,0,0,0,0,66,16191,7680,1784,0
1776865477731520,25,17,0,0,0,0,18,16199,7168,1016,0
1776865477731526,24,17,20196,63,-2015,3,90,32255,6655,4096,0
1776861191153000,0,0,22196,63,-2018,4,90,32511,6911,4096,0
1776861191153000,0,0,24196,63,-2022,6,91,-32257,6911,4096,0
1776861191153000,0,0,26196,63,-2020,3,93,32767,6655,3840,0
1776861191153000,0,0,28196,63,-2023,-1,89,32511,6655,4096,0
1776861191153000,0,0,30196,63,-2022,0,78,32511,5887,4352,0
1776861191153000,0,0,32195,63,-2024,3,87,32255,6143,4096,0
1776861191153000,0,0,-31341,63,-2023,6,92,32511,6655,4096,0
1776861191153000,0,0,-29341,63,-2023,0,97,32767,6911,4352,0
1776861191153000,0,0,-27342,63,-2023,-1,99,32255,6911,4352,0
1776861191153000,0,0,-25342,63,-2026,-4,97,32511,7167,4096,0
1776861195323964,-2022,-3,-170,-129,24,15,0,0,0,0,0
1776861195325964,-2023,-1,-168,-128,24,16,0,0,0,0,0
1776861195327964,-2026,-2,-170,-129,25,16,0,0,0,0,0
1776861195329964,-2026,-6,-172,-129,25,16,0,0,0,0,0
1776861195331964,-2029,-5,-158,-129,25,15,0,0,0,0,0
1776861195333963,-2027,-4,-159,-130,25,15,0,0,0,0,0
1776861195335963,-2031,-3,-165,-128,25,14,0,0,0,0,0
1776861195337963,-2032,-2,-169,-129,26,16,0,0,0,0,0
1776861195339963,-2028,-2,-171,-129,25,16,0,0,0,0,0
1776861195341962,-2029,2,-164,-128,25,15,0,0,0,0,0
1776861195343962,-2029,1,-172,-130,27,16,196,16378,6400,-8,255
1776865477797056,26,16,0,0,0,0,148,16386,5376,2040,0
1776865477797063,26,17,0,0,0,0,100,16394,5120,504,0
1776865477797064,24,16,0,0,0,0,52,16402,5888,-776,255
1776865477862593,24,15,0,0,0,0,3,16410,6656,1272,0
1776865477731524,23,17,0,0,0,0,211,16417,7168,248,0
1776865477731528,27,18,0,0,0,0,163,16425,7936,248,0
1776865477731520,26,16,0,0,0,0,114,16433,6656,1016,0
1776865477665986,26,16,0,0,0,0,66,16441,7680,1016,0
1776865477731540,24,16,0,0,0,0,18,16449,7680,-8,255
1776865477731530,24,18,0,0,0,0,226,16456,8192,1272,0
1776865477797057,25,18,20660,64,-2013,3,86,-32257,6911,3840,0
1776861191153000,0,0,22660,64,-2017,-1,88,-32257,6655,4096,0
1776861191153000,0,0,24660,64,-2020,1,90,-32513,6399,4608,0
1776861191153000,0,0,26659,64,-2024,0,94,32767,6143,4096,0
1776861191153000,0,0,28659,64,-2018,1,92,-32513,6143,4096,0
1776861191153000,0,0,30659,64,-2013,2,89,-32257,7167,4352,0
1776861191153000,0,0,32659,64,-2006,4,91,-32513,7679,4352,0
1776861191153000,0,0,-30877,64,-2006,1,92,-32513,7679,4096,0
1776861191153000,0,0,-28878,64,-2007,-3,90,32767,7423,4096,0
1776861191153000,0,0,-26878,64,-2012,7,91,32767,7423,3584,0
1776861191153000,0,0,-24878,64,-2015,7,80,-32513,7423,4352,0
1776861195389964,-2020,7,-169,-128,28,15,0,0,0,0,0
1776861195391964,-2019,-4,-161,-128,25,14,0,0,0,0,0
1776861195393964,-2008,-2,-163,-128,22,14,0,0,0,0,0
1776861195395964,-2000,2,-153,-126,22,14,0,0,0,0,0
1776861195397963,-2003,6,-152,-126,27,13,0,0,0,0,0
1776861195399963,-2014,11,-169,-128,32,15,0,0,0,0,0
1776861195401963,-2035,9,-191,-127,35,16,0,0,0,0,0
1776861195403963,-2050,0,-193,-130,28,15,0,0,0,0,0
1776861195405962,-2061,-5,-171,-131,16,13,0,0,0,0,0
1776861195407962,-2066,-11,-153,-129,9,13,0,0,0,0,0
1776861195409962,-2064,-18,-147,-129,12,11,148,16636,-1280,-2313,255
1776865477797076,23,11,0,0,0,0,100,16644,-2048,1015,0
1776865477928130,31,12,0,0,0,0,52,16652,-1792,3831,0
1776865477928109,33,15,0,0,0,0,4,16660,768,4344,0
1776865477731503,32,18,0,0,0,0,212,16667,3584,760,0
1776865477600448,22,17,0,0,0,0,164,16675,3072,-1288,255
1776865477600464,12,17,0,0,0,0,116,16683,5376,-2056,255
1776865477731548,11,19,0,0,0,0,68,16691,6912,-1032,255
1776865477797077,22,20,0,0,0,0,20,16699,5120,1528,0
1776865477862601,40,21,0,0,0,0,228,16706,5376,3320,0
1776865477731496,46,22,0,0,0,0,179,16714,6656,4088,0
1776865477600414,38,21,21123,65,-2021,10,73,32767,6655,5376,0
1776861191153000,0,0,23123,65,-2024,-3,88,32511,3327,4352,0
1776861191153000,0,0,25123,65,-2025,-12,103,32767,2559,3840,0
1776861191153000,0,0,27123,65,-2021,-3,119,-32001,4607,4352,0
1776861191153000,0,0,29123,65,-2011,6,102,-32001,6911,4096,0
1776861191153000,0,0,31122,65,-2014,13,84,32767,8447,4096,0
1776861191153000,0,0,-32414,65,-2016,9,76,-32513,7679,4352,0
1776861191153000,0,0,-30414,65,-2014,5,81,32767,6143,4096,0
1776861191153000,0,0,-28414,65,-2011,0,104,32767,4863,4352,0
1776861191153000,0,0,-26412,65,-2004,-4,108,-32513,4863,4608,0
1776861191153000,0,0,-24412,65,-1998,-7,106,32511,5887,4864,0
1776861195455963,-2001,3,-164,-130,28,17,0,0,0,0,0
1776861195457963,-2001,7,-175,-127,31,20,0,0,0,0,0
1776861195459963,-2008,9,-177,-128,28,20,0,0,0,0,0
1776861195461963,-2007,12,-174,-130,26,17,0,0,0,0,0
1776861195463963,-2008,8,-152,-131,22,15,0,0,0,0,0
1776861195465963,-2013,0,-148,-131,19,13,0,0,0,0,0
1776861195467962,-2016,1,-162,-130,25,12,0,0,0,0,0
1776861195469962,-2015,4,-162,-129,31,12,0,0,0,0,0
1776861195471962,-2016,8,-178,-127,33,13,0,0,0,0,0
1776861195473962,-2021,7,-180,-127,30,13,0,0,0,0,0
1776861195475962,-2027,1,-174,-129,23,15,100,16894,5120,-8,255
1776865477665988,16,16,0,0,0,0,52,16902,4352,-264,255
1776865477731522,16,14,0,0,0,0,4,16910,2560,1016,0
1776865477665986,21,16,0,0,0,0,212,16917,-1280,1783,0
1776865477731521,28,18,0,0,0,0,163,16925,-3328,503,0
1776865477731517,30,18,0,0,0,0,115,16933,-3840,-265,255
1776865477665975,22,16,0,0,0,0,66,16941,-1792,-1033,255
1776865477534914,16,17,0,0,0,0,18,16949,1536,-520,255
1776865477600465,18,16,0,0,0,0,226,16956,3584,-520,255
1776865477731534,26,14,0,0,0,0,178,16964,3328,1272,0
1776865477862601,32,14,0,0,0,0,130,16972,5120,3576,0
1776865477928116,37,17,21588,66,-2023,7,66,-32513,9215,5120,0
1776861191153000,0,0,23588,66,-2013,5,69,32767,7423,5376,0
1776861191153000,0,0,25588,66,-2008,1,86,32767,5375,4864,0
1776861191153000,0,0,27587,66,-2010,-8,109,-32513,4095,4608,0
1776861191153000,0,0,29587,66,-2020,-2,116,32767,5119,5376,0
1776861191153000,0,0,31587,66,-2024,11,103,-32513,7935,5120,0
1776861191153000,0,0,-31949,66,-2028,9,78,-32257,9727,4864,0
1776861191153000,0,0,-29949,66,-2025,4,67,-32257,8447,4864,0
1776861191153000,0,0,-27950,66,-2024,-1,84,-32513,4863,4352,0
1776861191153000,0,0,-25950,66,-2026,-6,92,32767,2559,3328,0
1776861191153000,0,0,-23950,66,-2021,-6,104,32767,4095,3072,0
1776861195521964,-2012,1,-143,-127,25,16,0,0,0,0,0
1776861195523964,-1999,-4,-164,-128,33,18,0,0,0,0,0
1776861195525964,-1991,7,-177,-129,34,17,0,0,0,0,0
1776861195527964,-1988,9,-174,-130,31,19,0,0,0,0,0
1776861195529964,-1997,6,-175,-131,26,20,0,0,0,0,0
1776861195531964,-1985,5,-168,-129,25,19,0,0,0,0,0
1776861195533964,-1972,4,-157,-130,24,18,0,0,0,0,0
1776861195535963,-1977,5,-145,-129,25,16,0,0,0,0,0
1776861195537963,-2001,11,-164,-129,31,14,0,0,0,0,0
1776861195539963,-2045,17,-183,-129,38,9,0,0,0,0,0
1776861195541963,-2065,9,-197,-130,36,9,50,17152,-6144,-1289,255
1776865477600425,26,9,0,0,0,0,2,17160,-4608,-3849,255
1776865477665981,10,8,0,0,0,0,213,17167,-2816,-5897,255
1776865477666002,-2,7,0,0,0,0,165,17175,-1024,-5641,255
1776865477731559,4,7,0,0,0,0,117,17183,-1024,-2825,255
1776865477862613,23,13,0,0,0,0,69,17191,4608,1016,0
1776865477928124,41,19,0,0,0,0,21,17199,7936,2808,0
1776865477928099,45,22,0,0,0,0,229,17206,7680,2808,0
1776865477665963,28,22,0,0,0,0,181,17214,1536,2808,0
1776865477338313,6,18,0,0,0,0,130,17222,-2816,1271,0
1776865477469415,3,19,0,0,0,0,84,17230,-4608,-777,255
1776865477600492,18,20,22051,67,-2064,-3,103,-32257,9983,4864,0
1776861191153000,0,0,24051,67,-2056,-3,81,-31745,13311,4096,0
1776861191153000,0,0,26050,67,-2053,6,65,-32001,11519,3584,0
1776861191153000,0,0,28050,67,-2050,3,62,-32257,8191,3840,0
1776861191153000,0,0,30050,67,-2033,0,63,32255,6399,4096,0
1776861191153000,0,0,32052,67,-2014,-1,72,31999,5631,4864,0
1776861191153000,0,0,-31484,67,-1996,0,103,32767,4095,5632,0
1776861191153000,0,0,-29485,67,-1994,5,105,-32513,3327,5632,0
1776861191153000,0,0,-27485,67,-2004,3,102,-32257,3839,5120,0
1776861191153000,0,0,-25485,67,-2020,10,100,-32257,6399,5376,0
1776861191153000,0,0,-23485,67,-2020,13,89,-32257,9215,5376,0
1776861195635834,-2032,1,-160,-127,34,18,0,0,0,0,0
1776861195637834,-2028,3,-175,-128,38,16,0,0,0,0,0
1776861195639834,-2025,12,-175,-129,37,15,0,0,0,0,0
1776861195641834,-2027,10,-172,-127,30,17,0,0,0,0,0
1776861195643834,-2027,11,-169,-127,25,18,0,0,0,0,0
1776861195645834,-2033,7,-158,-127,22,18,0,0,0,0,0
1776861195647834,-2029,-1,-159,-129,23,19,0,0,0,0,0
1776861195649834,-2028,-7,-160,-130,25,18,0,0,0,0,0
1776861195651834,-2022,-1,-163,-128,23,17,0,0,0,0,0
1776861195653834,-2014,6,-160,-127,21,16,0,0,0,0,0
1776861195655834,-2006,3,-159,-128,20,16,4,17597,11776,-264,255
1776865477797067,24,15,0,0,0,0,212,17604,14080,2040,0
1776865477731520,27,16,0,0,0,0,164,17612,13568,1528,0
1776865477797060,29,17,0,0,0,0,116,17620,8960,1272,0
1776865477797056,27,16,0,0,0,0,68,17628,5632,-520,255
1776865477797057,23,16,0,0,0,0,20,17636,4096,-1032,255
1776865477797057,20,16,0,0,0,0,228,17643,3072,-1032,255
1776865477731517,20,17,0,0,0,0,180,17651,4352,248,0
1776865477665985,22,18,0,0,0,0,131,17659,7424,760,0
1776865477797059,26,18,0,0,0,0,83,17667,7168,1784,0
1776865477797061,26,16,0,0,0,0,35,17675,6912,2296,0
1776865477797059,25,15,4850,69,-2016,11,84,32767,7167,3840,0
1776861191153000,0,0,6850,69,-2007,5,84,32767,6655,4096,0
1776861191153000,0,0,8850,69,-2010,-1,97,32511,6143,4352,0
1776861191153000,0,0,10850,69,-2010,-4,92,32767,5887,4096,0
1776861191153000,0,0,12850,69,-2021,4,87,32767,6655,4096,0
1776861191153000,0,0,14853,69,-2029,-4,81,-32513,8447,4352,0
1776861191153000,0,0,16852,69,-2033,-1,77,32767,9215,4352,0
1776861191153000,0,0,18852,69,-2040,-4,78,32511,7935,4352,0
1776861191153000,0,0,20852,69,-2042,-3,99,-32513,5887,3584,0
1776861191153000,0,0,22852,69,-2047,-3,101,-32257,4095,3072,0
1776861191153000,0,0,24852,69,-2055,-3,101,32511,4863,3328,0
1776861195701835,-2047,3,-160,-128,26,15,0,0,0,0,0
1776861195703835,-2046,1,-175,-128,29,14,0,0,0,0,0
1776861195705835,-2044,-2,-186,-128,27,14,0,0,0,0,0
1776861195707835,-2039,-1,-180,-129,23,14,0,0,0,0,0
1776861195709835,-2033,-1,-171,-129,22,15,0,0,0,0,0
1776861195711835,-2023,-5,-170,-128,24,19,0,0,0,0,0
1776861195713835,-2005,-7,-159,-129,26,21,0,0,0,0,0
1776861195715835,-2004,-2,-158,-129,26,22,0,0,0,0,0
1776861195717834,-2009,4,-156,-129,25,22,0,0,0,0,0
1776861195719834,-2014,9,-159,-128,25,20,0,0,0,0,0
1776861195721834,-2013,7,-168,-128,25,20,212,17854,11008,1272,0
1776865477731527,24,19,0,0,0,0,164,17862,10496,1528,0
1776865477731520,22,16,0,0,0,0,116,17870,8960,-8,255
1776865477797070,22,13,0,0,0,0,68,17878,8960,504,0
1776865477797072,23,12,0,0,0,0,20,17886,10240,504,0
1776865477862590,27,15,0,0,0,0,227,17893,11520,-264,255
1776865477862582,28,18,0,0,0,0,179,17901,12032,248,0
1776865477797043,26,17,0,0,0,0,131,17909,11264,2040,0
1776865477797053,21,15,0,0,0,0,82,17917,10240,1016,0
1776865477665992,16,15,0,0,0,0,34,17925,7680,1784,0
1776865477665992,19,17,0,0,0,0,242,17932,5888,1784,0
1776865477797063,28,20,5316,70,-2023,5,92,-32001,6655,5376,0
1776861191153000,0,0,7316,70,-2024,8,91,-32513,5375,5376,0
1776861191153000,0,0,9316,70,-2027,-2,96,-32513,4607,4096,0
1776861191153000,0,0,11316,70,-2030,0,110,-32513,5631,3072,0
1776861191153000,0,0,13315,70,-2030,7,103,-32257,7679,3328,0
1776861191153000,0,0,15315,70,-2032,11,80,-32257,8959,3584,0
1776861191153000,0,0,17315,70,-2020,8,71,-32513,8959,3584,0
1776861191153000,0,0,19315,70,-2018,-3,76,32767,6911,4096,0
1776861191153000,0,0,21315,70,-2013,-7,103,32767,4863,4608,0
1776861191153000,0,0,23315,70,-2017,-6,115,32767,4607,3840,0
1776861191153000,0,0,25315,70,-2021,1,110,32511,5375,4096,0
1776861195767834,-2019,4,-157,-128,30,18,0,0,0,0,0
1776861195769834,-2024,7,-183,-127,37,19,0,0,0,0,0
1776861195771834,-2031,11,-189,-128,33,18,0,0,0,0,0
1776861195773837,-2036,9,-180,-130,21,17,0,0,0,0,0
1776861195775836,-2049,5,-157,-128,13,14,0,0,0,0,0
1776861195777836,-2053,-2,-150,-127,19,12,0,0,0,0,0
1776861195779836,-2048,-1,-162,-128,27,12,0,0,0,0,0
1776861195781836,-2043,-2,-166,-128,32,14,0,0,0,0,0
1776861195783836,-2032,0,-172,-127,30,17,0,0,0,0,0
1776861195785836,-2032,-1,-177,-130,25,19,0,0,0,0,0
1776861195787835,-2027,5,-175,-130,21,20,162,18112,8448,760,0
1776865477731521,18,20,0,0,0,0,114,18120,10240,760,0
1776865477665990,20,21,0,0,0,0,66,18128,9472,1272,0
1776865477665984,23,22,0,0,0,0,18,18136,8704,504,0
1776865477731525,26,20,0,0,0,0,226,18143,8448,1528,0
1776865477731521,28,18,0,0,0,0,178,18151,9472,2040,0
1776865477731515,28,17,0,0,0,0,130,18159,8448,-264,255
1776865477862592,26,16,0,0,0,0,82,18167,7168,-8,255
1776865477862597,23,12,0,0,0,0,34,18175,8192,-776,255
1776865477731526,22,13,0,0,0,0,242,18182,8704,-264,255
1776865477731529,23,14,0,0,0,0,194,18190,9728,-264,255
1776865477797058,26,16,5780,71,-2005,8,81,-32513,7167,4352,0
1776861191153000,0,0,7780,71,-1997,9,79,-32513,6911,4864,0
1776861191153000,0,0,9780,71,-2000,5,87,-32513,5631,5120,0
1776861191153000,0,0,11780,71,-2005,3,87,32511,4607,4608,0
1776861191153000,0,0,13779,71,-2015,2,99,32255,4863,4096,0
1776861191153000,0,0,15779,71,-2021,2,102,-32513,6143,4352,0
1776861191153000,0,0,17779,71,-2020,0,94,-32257,7679,4352,0
1776861191153000,0,0,19779,71,-2023,-2,96,-32513,7935,3328,0
1776861191153000,0,0,21779,71,-2024,-5,91,-32513,7423,2560,0
1776861191153000,0,0,23779,71,-2035,-3,89,32511,6655,2560,0
1776861191153000,0,0,25779,71,-2027,4,83,32767,6399,3584,0
1776861195833834,-2024,-5,-168,-128,26,15,0,0,0,0,0
1776861195835834,-2023,2,-160,-128,26,16,0,0,0,0,0
1776861195837834,-2016,0,-161,-128,22,16,0,0,0,0,0
1776861195839836,-2019,-1,-158,-130,21,18,0,0,0,0,0
1776861195841836,-2024,5,-161,-130,23,19,0,0,0,0,0
1776861195843836,-2033,6,-162,-129,25,19,0,0,0,0,0
1776861195845836,-2034,-3,-155,-129,27,18,0,0,0,0,0
1776861195847836,-2034,-3,-170,-130,26,17,0,0,0,0,0
1776861195849836,-2039,-1,-174,-129,26,14,0,0,0,0,0
1776861195851836,-2037,-6,-161,-129,26,15,0,0,0,0,0
1776861195853836,-2038,-2,-163,-128,27,15,115,18370,4096,504,0
1776865477862581,30,15,0,0,0,0,67,18378,5632,1272,0
1776865477862581,28,15,0,0,0,0,19,18386,5632,1016,0
1776865477797054,24,17,0,0,0,0,227,18393,5632,1016,0
1776865477797062,22,18,0,0,0,0,178,18401,7424,1528,0
1776865477665998,23,17,0,0,0,0,130,18409,8448,2040,0
1776865477797070,27,18,0,0,0,0,82,18417,7936,1784,0
1776865477862599,29,19,0,0,0,0,34,18425,8192,2808,0
1776865477797055,29,17,0,0,0,0,242,18432,7680,1272,0
1776865477797063,28,17,0,0,0,0,194,18440,6400,-520,255
1776865477797063,24,16,0,0,0,0,146,18448,5120,-1544,255
1776865477797057,22,15,6244,72,-2028,-2,88,-32513,6655,3584,0
1776861191153000,0,0,8244,72,-2027,6,88,32511,7167,3584,0
1776861191153000,0,0,10244,72,-2024,0,79,-32513,7423,3840,0
1776861191153000,0,0,12244,72,-2019,-2,86,32767,7167,4096,0
1776861191153000,0,0,14243,72,-2015,2,91,32767,6399,4608,0
1776861191153000,0,0,16243,72,-2010,6,88,32511,6143,4608,0
1776861191153000,0,0,18243,72,-2002,5,98,32511,6143,4608,0
1776861191153000,0,0,20243,72,-2006,5,102,-32513,6655,4608,0
1776861191153000,0,0,22243,72,-2012,5,99,-32513,6911,4608,0
1776861191153000,0,0,24243,72,-2016,3,90,32767,6399,4352,0
1776861191153000,0,0,26243,72,-2023,3,84,32511,6655,4352,0
1776861195899834,-2029,1,-172,-129,27,16,0,0,0,0,0
1776861195901834,-2025,6,-169,-130,26,15,0,0,0,0,0
1776861195903834,-2022,0,-169,-128,22,13,0,0,0,0,0
1776861195905836,-2021,-6,-165,-127,22,14,0,0,0,0,0
1776861195907836,-2014,-3,-160,-129,24,15,0,0,0,0,0
1776861195909836,-2006,5,-161,-129,27,15,0,0,0,0,0
1776861195911836,-2000,6,-167,-127,28,15,0,0,0,0,0
1776861195913836,-2012,10,-175,-128,27,15,0,0,0,0,0
1776861195915836,-2031,6,-174,-129,27,14,0,0,0,0,0
1776861195917836,-2036,3,-167,-132,25,14,0,0,0,0,0
1776861195919835,-2036,-2,-168,-130,24,16,67,18628,2560,-2824,255
1776865477731528,26,16,0,0,0,0,19,18636,3840,-2824,255
1776865477797055,27,14,0,0,0,0,227,18643,5632,-2568,255
1776865477797048,25,12,0,0,0,0,178,18651,6144,504,0
1776865477665991,28,11,0,0,0,0,130,18659,6912,2040,0
1776865477665984,30,13,0,0,0,0,82,18667,5120,2040,0
1776865477665981,31,16,0,0,0,0,34,18675,3072,760,0
1776865477731520,26,17,0,0,0,0,242,18682,3072,248,0
1776865477731528,23,16,0,0,0,0,197,18690,512,-1544,255
1776865477534923,22,17,0,0,0,0,149,18698,-768,-1801,255
1776865477665994,21,18,0,0,0,0,101,18706,-1536,-2569,255
1776865477731520,22,15,6708,73,-2050,-12,94,32767,5631,3840,0
1776861191153000,0,0,8708,73,-2037,-5,93,-32257,6143,3840,0
1776861191153000,0,0,10708,73,-2024,-6,96,-32513,6655,4096,0
1776861191153000,0,0,12708,73,-2017,-4,106,-32513,6911,4352,0
1776861191153000,0,0,14708,73,-2011,-1,101,-32513,7167,4608,0
1776861191153000,0,0,16708,73,-2010,5,99,-32513,7167,4864,0
1776861191153000,0,0,18707,73,-2011,3,100,32511,7423,5120,0
1776861191153000,0,0,20707,73,-2018,-1,99,32511,7679,5888,0
1776861191153000,0,0,22707,73,-2016,-1,98,-32513,8191,5888,0
1776861191153000,0,0,24706,73,-2018,-2,90,-32513,7167,5120,0
1776861191153000,0,0,26706,73,-2018,3,87,-32513,5631,4864,0
1776861195965836,-2020,2,-158,-128,19,18,0,0,0,0,0
1776861195967836,-2017,1,-161,-132,21,17,0,0,0,0,0
1776861195969836,-2012,2,-163,-131,22,14,0,0,0,0,0
1776861195971835,-2003,3,-159,-131,24,14,0,0,0,0,0
1776861195973835,-1999,4,-163,-132,22,14,0,0,0,0,0
1776861195975835,-2001,3,-174,-130,22,15,0,0,0,0,0
1776861195977835,-1998,8,-178,-129,25,16,0,0,0,0,0
1776861195979834,-2005,8,-164,-129,27,16,0,0,0,0,0
1776861195981834,-2006,4,-164,-130,23,16,0,0,0,0,0
1776861195983834,-2009,0,-171,-130,23,17,0,0,0,0,0
1776861195985837,-2017,-3,-162,-129,24,17,5,19083,9216,1016,0
1776865477797077,24,15,0,0,0,0,213,19090,8448,1272,0
1776865477665994,23,15,0,0,0,0,165,19098,7936,760,0
1776865477665987,22,15,0,0,0,0,120,19106,5632,760,0
1776865477600452,25,15,0,0,0,0,71,19114,6400,1016,0
1776865477665997,27,13,0,0,0,0,23,19122,7168,-776,255
1776865477731520,27,14,0,0,0,0,231,19129,7168,-1032,255
1776865477731517,28,16,0,0,0,0,183,19137,9216,-2312,255
1776865477862591,24,15,0,0,0,0,135,19145,10240,-776,255
1776865477928137,22,16,0,0,0,0,86,19153,10496,-520,255
1776865477797062,25,17,0,0,0,0,38,19161,8960,1016,0
1776865477797063,26,17,-7947,74,-2018,3,83,-32513,6399,4352,0
1776861191153000,0,0,-5947,74,-2019,4,94,-32513,6399,3840,0
1776861191153000,0,0,-3945,74,-2019,9,104,32767,6655,3584,0
1776861191153000,0,0,-1945,74,-2020,1,92,32767,6399,3328,0
1776861191153000,0,0,55,75,-2022,1,92,32767,6399,3328,0
1776861191153000,0,0,2054,75,-2020,-1,96,-32513,6399,3584,0
1776861191153000,0,0,4054,75,-2016,-1,89,32511,6911,3584,0
1776861191153000,0,0,6054,75,-2013,1,80,32255,7423,3840,0
1776861191153000,0,0,8054,75,-2012,-2,81,32511,7935,4352,0
1776861191153000,0,0,10054,75,-2006,3,89,-32513,6911,4352,0
1776861191153000,0,0,12054,75,-1996,5,85,-32257,6143,4352,0
1776861196082253,-1995,3,-152,-127,22,16,0,0,0,0,0
1776861196084253,-2015,10,-160,-127,28,14,0,0,0,0,0
1776861196086253,-2049,16,-173,-127,35,13,0,0,0,0,0
1776861196088256,-2073,12,-180,-127,35,12,0,0,0,0,0
1776861196090255,-2081,-1,-175,-129,21,12,0,0,0,0,0
1776861196092255,-2069,-18,-164,-130,7,12,0,0,0,0,0
1776861196094255,-2064,-29,-138,-129,4,11,0,0,0,0,0
1776861196096255,-2054,-17,-147,-128,16,12,0,0,0,0,0
1776861196098254,-2054,-5,-163,-128,31,15,0,0,0,0,0
1776861196100254,-2042,6,-201,-126,40,18,0,0,0,0,0
1776861196102254,-2022,12,-214,-127,34,20,213,19340,7936,1528,0
1776865477600445,17,19,0,0,0,0,165,19348,10240,2040,0
1776865477534950,1,19,0,0,0,0,117,19356,12032,-8,255
1776865477666037,5,20,0,0,0,0,69,19364,8704,2808,0
1776865477731558,26,21,0,0,0,0,21,19372,7680,2552,0
1776865477928134,50,23,0,0,0,0,229,19379,4096,1016,0
1776865477928096,58,20,0,0,0,0,181,19387,4352,504,0
1776865477862554,43,17,0,0,0,0,136,19395,2048,-520,255
1776865477665970,22,15,0,0,0,0,87,19403,2560,-1544,255
1776865477600460,11,13,0,0,0,0,39,19411,6400,-1800,255
1776865477797078,14,15,0,0,0,0,247,19418,8960,1272,0
1776865477797072,21,18,-7482,75,-2008,15,92,-32001,6655,4864,0
1776861191153000,0,0,-5482,75,-2012,14,98,-32257,6399,4608,0
1776861191153000,0,0,-3483,75,-2015,9,92,-32513,5375,4096,0
1776861191153000,0,0,-1483,75,-2014,5,94,32767,5887,4096,0
1776861191153000,0,0,517,76,-2007,-10,94,-32513,6399,4352,0
1776861191153000,0,0,2517,76,-2009,-14,94,32511,6655,4608,0
1776861191153000,0,0,4517,76,-2013,-13,91,32767,6655,4352,0
1776861191153000,0,0,6520,76,-2013,-4,89,-32513,6911,4864,0
1776861191153000,0,0,8520,76,-2011,1,78,-32257,7423,4608,0
1776861191153000,0,0,10519,76,-2009,6,85,-32513,7167,4096,0
1776861191153000,0,0,12519,76,-2005,5,83,32255,6655,4352,0
1776861196148254,-2014,5,-161,-129,22,16,0,0,0,0,0
1776861196150254,-2019,8,-150,-128,20,15,0,0,0,0,0
1776861196152254,-2015,3,-151,-128,24,14,0,0,0,0,0
1776861196154254,-2014,0,-167,-128,29,13,0,0,0,0,0
1776861196156253,-2014,3,-180,-128,30,15,0,0,0,0,0
1776861196158253,-2022,1,-181,-129,26,14,0,0,0,0,0
1776861196160253,-2027,5,-176,-129,21,14,0,0,0,0,0
1776861196162253,-2022,1,-157,-129,19,14,0,0,0,0,0
1776861196164255,-2025,6,-153,-129,19,15,0,0,0,0,0
1776861196166255,-2033,6,-159,-128,22,15,0,0,0,0,0
1776861196168255,-2042,7,-172,-126,25,15,166,19598,-2048,1783,0
1776865477862584,26,15,0,0,0,0,118,19606,-3072,2039,0
1776865477862597,24,15,0,0,0,0,70,19614,-1280,247,0
1776865477797075,23,15,0,0,0,0,21,19622,-768,247,0
1776865477731531,20,15,0,0,0,0,229,19629,1792,-776,255
1776865477862611,21,15,0,0,0,0,181,19637,5888,-1288,255
1776865477731530,26,17,0,0,0,0,133,19645,7680,-1032,255
1776865477797055,32,18,0,0,0,0,88,19653,10752,504,0
1776865477797045,35,20,0,0,0,0,39,19661,13312,1784,0
1776865477731507,30,19,0,0,0,0,247,19668,12800,2296,0
1776865477665975,24,19,0,0,0,0,198,19676,11264,760,0
1776865477665984,19,19,-7019,76,-2008,0,100,-32513,5119,4352,0
1776861191153000,0,0,-5017,76,-2024,-3,104,32767,6143,4096,0
1776861191153000,0,0,-3017,76,-2028,4,97,-32513,6655,4096,0
1776861191153000,0,0,-1017,76,-2030,2,82,-32513,6911,4096,0
1776861191153000,0,0,982,77,-2033,-1,84,-32513,7423,3328,0
1776861191153000,0,0,2982,77,-2030,-2,75,-32513,7167,3072,0
1776861191153000,0,0,4982,77,-2021,-9,79,32255,6143,3584,0
1776861191153000,0,0,6982,77,-2013,-11,88,32767,4863,3584,0
1776861191153000,0,0,8982,77,-2012,-6,100,32767,4863,4352,0
1776861191153000,0,0,10983,77,-2007,0,96,32767,6143,5120,0
1776861191153000,0,0,12982,77,-2005,8,87,32767,7679,5120,0
1776861196214255,-2007,8,-170,-129,30,21,0,0,0,0,0
1776861196216255,-2006,7,-165,-129,26,21,0,0,0,0,0
1776861196218254,-2009,4,-151,-130,20,19,0,0,0,0,0
1776861196220254,-2009,5,-143,-129,22,15,0,0,0,0,0
1776861196222254,-2003,7,-164,-129,26,13,0,0,0,0,0
1776861196224253,-1998,-1,-161,-128,32,12,0,0,0,0,0
1776861196226255,-1998,2,-170,-129,34,13,0,0,0,0,0
1776861196228254,-2002,-1,-174,-128,31,12,0,0,0,0,0
1776861196230254,-2009,0,-179,-129,27,11,0,0,0,0,0
1776861196232253,-2013,4,-177,-129,21,12,0,0,0,0,0
1776861196234253,-2017,-4,-170,-131,19,11,118,19856,5376,-520,255
1776865477600460,21,11,0,0,0,0,69,19864,2304,760,0
1776865477731525,22,11,0,0,0,0,23,19872,256,2040,0
1776865477797058,22,13,0,0,0,0,231,19879,-3328,1527,0
1776865477731518,27,14,0,0,0,0,182,19887,-3328,-521,255
1776865477797049,26,13,0,0,0,0,134,19895,-2816,503,0
1776865477862590,21,13,0,0,0,0,86,19903,-2816,-1289,255
1776865477797070,19,13,0,0,0,0,37,19911,-2560,247,0
1776865477731536,22,14,0,0,0,0,245,19918,0,-776,255
1776865477731531,27,15,0,0,0,0,199,19926,3328,-520,255
1776865477862593,30,19,0,0,0,0,151,19934,5632,-8,255
1776865477862587,32,19,-6555,77,-2024,2,90,-32513,7167,4864,0
1776861191153000,0,0,-4555,77,-2022,-1,91,-32513,5887,5376,0
1776861191153000,0,0,-2553,77,-2020,3,95,32511,6911,5632,0
1776861191153000,0,0,-553,77,-2017,7,93,32255,8191,5120,0
1776861191153000,0,0,1446,78,-2018,4,86,32511,8703,4608,0
