# KAPUTNIK Flight Data v5
# Sample rate: 500 Hz
# Samples: 4998
# Accel range: +/-16 g
# Gyro range: +/-2000 dps
# Epoch start: 1776861987105
epoch_us,ax,ay,az,gx,gy,gz,gp14,mx,my,mz,mag_valid
1776861987105268,-2029,8,-189,-128,24,17,0,0,0,0,0
1776861987107000,-2025,16,-187,-128,24,14,0,0,0,0,0
1776861987109001,-2023,14,-195,-130,24,13,0,0,0,0,0
1776861987111001,-2026,12,-195,-131,24,15,0,0,0,0,0
1776861987113001,-2026,12,-196,-128,26,17,0,0,0,0,0
1776861987115001,-2025,13,-196,-129,26,17,0,0,0,0,0
1776861987117001,-2026,8,-191,-127,27,16,0,0,0,0,0
1776861987119001,-2020,12,-191,-127,25,16,0,0,0,0,0
1776861987121001,-2020,11,-190,-129,26,16,0,0,0,0,0
1776861987123001,-2020,9,-187,-129,27,17,0,0,0,0,0
1776866282072295,-1,-1,-1,-1,-1,-1,33,78,6656,1528,0
1776866273683497,26,17,0,0,0,0,15,273,5376,2040,0
1776866273749025,23,13,0,0,0,0,224,280,5888,2040,0
1776866273749033,24,14,0,0,0,0,176,288,5888,1528,0
1776866273683496,23,15,0,0,0,0,128,296,5376,2296,0
1776866273749028,21,15,0,0,0,0,80,304,5376,2552,0
1776866273749028,22,17,0,0,0,0,32,312,5120,2296,0
1776866273814567,23,16,0,0,0,0,240,319,6144,2040,0
1776866273814571,22,14,0,0,0,0,192,327,6144,3832,0
1776866273814574,24,15,0,0,0,0,144,335,5632,3576,0
1776866273814566,25,15,0,0,0,0,255,-1,-1,-1,255
1776866282072295,-1,-1,22368,1,-2030,12,63,-32513,6655,3584,0
1776861987105000,0,0,24370,1,-2024,14,64,32767,6911,4096,0
1776861987105000,0,0,26367,1,-2030,8,73,32511,7423,4096,0
1776861987105000,0,0,28367,1,-2024,5,66,32767,6655,4608,0
1776861987105000,0,0,30367,1,-2020,12,63,-32257,5887,3840,0
1776861987105000,0,0,32367,1,-2018,9,62,-32257,6143,3328,0
1776861987105000,0,0,-31169,1,-2019,9,69,-32513,6655,4096,0
1776861987105000,0,0,-29169,1,-2020,12,62,-32513,6911,4608,0
1776861987105000,0,0,-27169,1,-2014,14,60,-32001,6655,4608,0
1776861987105000,0,0,-25169,1,-2017,18,66,-32257,6655,4352,0
1776861987105000,0,0,-1,-1,-1,-1,255,-1,-1,-1,255
1776861987212904,-2013,10,-190,-128,27,16,0,0,0,0,0
1776861987214904,-2019,8,-185,-128,27,14,0,0,0,0,0
1776861987216904,-2022,12,-189,-129,23,15,0,0,0,0,0
1776861987218904,-2024,9,-187,-129,23,15,0,0,0,0,0
1776861987220904,-2025,6,-190,-129,23,16,0,0,0,0,0
1776861987222904,-2026,7,-187,-129,24,17,0,0,0,0,0
1776861987224904,-2021,16,-182,-129,24,15,0,0,0,0,0
1776861987226904,-2021,12,-186,-129,23,15,0,0,0,0,0
1776861987228904,-2014,8,-191,-129,22,15,0,0,0,0,0
1776861987230904,-2017,12,-190,-128,24,17,0,0,0,0,0
1776866282072295,-1,-1,-1,-1,-1,-1,160,499,8448,4088,0
1776866273749035,22,16,0,0,0,0,112,507,7936,3320,0
1776866273880095,21,16,0,0,0,0,64,515,7680,3064,0
1776866273814564,24,17,0,0,0,0,16,523,6912,2040,0
1776866273749035,26,14,0,0,0,0,224,530,5888,2808,0
1776866273880105,26,15,0,0,0,0,176,538,6400,3064,0
1776866273880104,25,16,0,0,0,0,128,546,6912,3832,0
1776866273814570,24,16,0,0,0,0,80,554,6400,2808,0
1776866273749033,25,17,0,0,0,0,32,562,6144,3576,0
1776866273683494,22,20,0,0,0,0,241,569,6656,4600,0
1776866273683500,20,17,0,0,0,0,255,-1,-1,-1,255
1776866282072295,-1,-1,16833,2,-2026,14,71,32767,6143,3840,0
1776861987105000,0,0,18833,2,-2022,8,66,32511,7167,3840,0
1776861987105000,0,0,20833,2,-2025,11,53,32511,7423,3840,0
1776861987105000,0,0,22832,2,-2026,11,70,32767,7423,3840,0
1776861987105000,0,0,24833,2,-2024,12,64,32511,6911,4352,0
1776861987105000,0,0,26833,2,-2026,9,65,32511,6143,4096,0
1776861987105000,0,0,28833,2,-2022,10,69,32511,5887,4096,0
1776861987105000,0,0,30833,2,-2019,13,68,-32513,6399,3840,0
1776861987105000,0,0,-32703,2,-2022,10,62,-32513,6655,4096,0
1776861987105000,0,0,-30703,2,-2021,11,70,32767,6655,4096,0
1776861987105000,0,0,-1,-1,-1,-1,255,-1,-1,-1,255
1776861987272905,-2025,9,-192,-131,26,15,0,0,0,0,0
1776861987274906,-2018,11,-196,-130,27,16,0,0,0,0,0
1776861987276903,-2023,12,-206,-129,27,15,0,0,0,0,0
1776861987278903,-2023,9,-199,-129,27,15,0,0,0,0,0
1776861987280903,-2024,7,-184,-130,27,16,0,0,0,0,0
1776861987282903,-2020,11,-191,-130,26,17,0,0,0,0,0
1776861987284903,-2018,11,-185,-128,25,15,0,0,0,0,0
1776861987286903,-2019,15,-189,-128,25,15,0,0,0,0,0
1776861987288903,-2020,8,-187,-129,24,16,0,0,0,0,0
1776861987290903,-2018,8,-198,-128,25,16,0,0,0,0,0
1776866282072295,-1,-1,-1,-1,-1,-1,255,733,7936,1528,0
1776866273749026,26,16,0,0,0,0,207,741,7168,3064,0
1776866273683486,24,18,0,0,0,0,159,749,6400,3064,0
1776866273683481,23,17,0,0,0,0,111,757,5888,3064,0
1776866273749030,23,15,0,0,0,0,63,765,6656,4088,0
1776866273617958,24,17,0,0,0,0,15,773,6656,4344,0
1776866273683490,26,18,0,0,0,0,223,780,6656,3576,0
1776866273814562,25,16,0,0,0,0,175,788,7680,2808,0
1776866273814561,25,15,0,0,0,0,127,796,6656,3064,0
1776866273814553,25,15,0,0,0,0,79,804,6400,3064,0
1776866273683498,24,17,0,0,0,0,255,-1,-1,-1,255
1776866282072295,-1,-1,11295,3,-2019,10,62,32767,6655,4352,0
1776861987105000,0,0,13295,3,-2022,14,75,32767,6911,3840,0
1776861987105000,0,0,15295,3,-2022,9,67,32511,6655,3840,0
1776861987105000,0,0,17295,3,-2024,8,73,32767,6143,4352,0
1776861987105000,0,0,19295,3,-2027,10,72,-32513,6399,3840,0
1776861987105000,0,0,21295,3,-2022,9,64,32767,6655,3840,0
1776861987105000,0,0,23295,3,-2021,1,55,32767,6655,4352,0
1776861987105000,0,0,25295,3,-2023,6,55,-32513,6655,4096,0
1776861987105000,0,0,27295,3,-2027,10,55,32767,6655,4096,0
1776861987105000,0,0,29295,3,-2027,8,54,32767,6655,4608,0
1776861987105000,0,0,-1,-1,-1,-1,255,-1,-1,-1,255
1776861987332903,-2021,8,-200,-128,25,18,0,0,0,0,0
1776861987334903,-2023,6,-190,-129,23,17,0,0,0,0,0
1776861987336903,-2021,10,-193,-129,24,17,0,0,0,0,0
1776861987338903,-2020,5,-194,-131,25,17,0,0,0,0,0
1776861987340903,-2022,14,-194,-132,27,16,0,0,0,0,0
1776861987342903,-2017,11,-188,-129,28,16,0,0,0,0,0
1776861987344903,-2021,4,-187,-130,28,18,0,0,0,0,0
1776861987346903,-2022,7,-190,-130,26,17,0,0,0,0,0
1776861987348903,-2018,8,-186,-128,26,14,0,0,0,0,0
1776861987350903,-2025,12,-184,-128,25,15,0,0,0,0,0
1776866282072295,-1,-1,-1,-1,-1,-1,95,968,7680,2552,0
1776866273683500,25,17,0,0,0,0,47,976,7680,2296,0
1776866273814580,24,15,0,0,0,0,255,983,8704,1272,0
1776866273749043,24,15,0,0,0,0,207,991,6912,2296,0
1776866273749041,24,16,0,0,0,0,159,999,6144,2808,0
1776866273749034,26,16,0,0,0,0,111,1007,5632,3064,0
1776866273814561,25,16,0,0,0,0,63,1015,6912,4344,0
1776866273683492,26,14,0,0,0,0,15,1023,7168,4600,0
1776866273617950,27,16,0,0,0,0,223,1030,7936,3576,0
1776866273683494,25,17,0,0,0,0,175,1038,8704,4344,0
1776866273683489,26,18,0,0,0,0,255,-1,-1,-1,255
1776866282072295,-1,-1,5759,4,-2016,14,66,32511,6911,4352,0
1776861987105000,0,0,7759,4,-2019,12,65,32767,6143,4096,0
1776861987105000,0,0,9759,4,-2021,11,61,-32513,6399,4352,0
1776861987105000,0,0,11759,4,-2024,8,69,-32513,6655,4352,0
1776861987105000,0,0,13759,4,-2026,11,72,32767,6655,4608,0
1776861987105000,0,0,15759,4,-2024,15,70,32511,6399,4608,0
1776861987105000,0,0,17759,4,-2022,9,68,32511,6399,4608,0
1776861987105000,0,0,19759,4,-2021,8,59,32511,6399,4352,0
1776861987105000,0,0,21759,4,-2019,10,59,-32513,6911,4096,0
1776861987105000,0,0,23759,4,-2015,9,59,-32513,6655,4096,0
1776861987105000,0,0,-1,-1,-1,-1,255,-1,-1,-1,255
1776861987392903,-2015,11,-190,-128,26,15,0,0,0,0,0
1776861987394903,-2023,5,-190,-129,28,15,0,0,0,0,0
1776861987396903,-2026,10,-192,-128,28,16,0,0,0,0,0
1776861987398903,-2020,10,-198,-129,27,16,0,0,0,0,0
1776861987400903,-2021,13,-202,-129,25,17,0,0,0,0,0
1776861987402903,-2027,9,-194,-128,25,18,0,0,0,0,0
1776861987404903,-2026,9,-200,-128,26,16,0,0,0,0,0
1776861987406903,-2024,10,-195,-130,27,14,0,0,0,0,0
1776861987408903,-2027,4,-192,-129,24,14,0,0,0,0,0
1776861987410903,-2030,6,-195,-130,26,15,0,0,0,0,0
1776866282072295,-1,-1,-1,-1,-1,-1,191,1202,6144,3576,0
1776866273749029,26,15,0,0,0,0,143,1210,6144,3320,0
1776866273749032,24,16,0,0,0,0,95,1218,7168,3576,0
1776866273617957,25,18,0,0,0,0,47,1226,7936,3320,0
1776866273617955,24,19,0,0,0,0,255,1233,6656,3320,0
1776866273552417,23,17,0,0,0,0,207,1241,7936,3064,0
1776866273749022,22,17,0,0,0,0,159,1249,7168,3576,0
1776866273814573,22,16,0,0,0,0,111,1257,8960,3064,0
1776866273617965,24,15,0,0,0,0,63,1265,7936,3320,0
1776866273749034,27,16,0,0,0,0,15,1273,7424,3832,0
1776866273814576,29,18,0,0,0,0,255,-1,-1,-1,255
1776866282072295,-1,-1,223,5,-2018,12,63,-32513,6911,4608,0
1776861987105000,0,0,2223,5,-2018,16,57,-32513,6655,4352,0
1776861987105000,0,0,4223,5,-2019,15,57,-32513,6655,4608,0
1776861987105000,0,0,6223,5,-2020,12,67,-32513,6143,4352,0
1776861987105000,0,0,8223,5,-2021,5,66,-32513,6143,4608,0
1776861987105000,0,0,10223,5,-2018,8,70,-32257,6143,4352,0
1776861987105000,0,0,12223,5,-2022,9,62,-32513,6655,4096,0
1776861987105000,0,0,14223,5,-2024,9,66,32767,6911,3840,0
1776861987105000,0,0,16223,5,-2026,7,69,32767,6655,4096,0
1776861987105000,0,0,18223,5,-2030,8,70,-32513,6655,4352,0
1776861987105000,0,0,-1,-1,-1,-1,255,-1,-1,-1,255
1776861987452903,-2020,13,-186,-127,24,16,0,0,0,0,0
1776861987454903,-2022,13,-192,-128,25,15,0,0,0,0,0
1776861987456903,-2026,14,-190,-129,25,16,0,0,0,0,0
1776861987458903,-2026,13,-199,-129,25,16,0,0,0,0,0
1776861987460903,-2022,10,-195,-129,25,14,0,0,0,0,0
1776861987462903,-2023,10,-196,-129,24,14,0,0,0,0,0
1776861987464903,-2028,10,-189,-130,26,15,0,0,0,0,0
1776861987466903,-2026,10,-187,-129,26,16,0,0,0,0,0
1776861987468903,-2027,10,-189,-130,26,17,0,0,0,0,0
1776861987470903,-2026,13,-192,-131,27,18,0,0,0,0,0
1776866282072295,-1,-1,-1,-1,-1,-1,31,1437,5888,3064,0
1776866273617967,26,17,0,0,0,0,239,1444,6400,4344,0
1776866273683502,24,15,0,0,0,0,191,1452,6656,4344,0
1776866273749038,23,15,0,0,0,0,143,1460,4608,2552,0
1776866273749043,22,15,0,0,0,0,95,1468,4352,2552,0
1776866273749035,23,15,0,0,0,0,47,1476,6400,1784,0
1776866273683504,26,15,0,0,0,0,255,1483,5632,1784,0
1776866273683507,26,16,0,0,0,0,207,1491,7168,3064,0
1776866273617971,24,16,0,0,0,0,159,1499,7936,2296,0
1776866273683498,24,16,0,0,0,0,111,1507,8448,1528,0
1776866273617956,26,17,0,0,0,0,255,-1,-1,-1,255
1776866282072295,-1,-1,-5313,5,-2018,6,61,32767,6655,4352,0
1776861987105000,0,0,-20978,6,-2020,9,67,-32513,6399,4096,0
1776861987105000,0,0,-18978,6,-2025,9,76,32767,6655,4608,0
1776861987105000,0,0,-16978,6,-2028,15,74,-32513,7167,4608,0
1776861987105000,0,0,-14978,6,-2023,9,77,-32513,7167,4352,0
1776861987105000,0,0,-12978,6,-2022,9,65,-32257,6911,3840,0
1776861987105000,0,0,-10977,6,-2025,10,60,-32513,6911,4096,0
1776861987105000,0,0,-8977,6,-2023,15,59,-32257,6655,4096,0
1776861987105000,0,0,-6977,6,-2020,16,64,-32257,6655,4096,0
1776861987105000,0,0,-4977,6,-2021,13,67,32511,6655,4096,0
1776861987105000,0,0,-1,-1,-1,-1,255,-1,-1,-1,255
1776861987560775,-2018,11,-194,-130,27,16,0,0,0,0,0
1776861987562775,-2015,17,-193,-131,27,15,0,0,0,0,0
1776861987564775,-2018,12,-191,-130,25,17,0,0,0,0,0
1776861987566775,-2020,7,-189,-129,26,16,0,0,0,0,0
1776861987568775,-2020,10,-187,-129,25,13,0,0,0,0,0
1776861987570775,-2019,8,-183,-128,25,15,0,0,0,0,0
1776861987572775,-2017,13,-193,-128,28,16,0,0,0,0,0
1776861987574775,-2017,12,-195,-130,28,14,0,0,0,0,0
1776861987576775,-2024,8,-196,-130,26,15,0,0,0,0,0
1776861987578775,-2023,5,-193,-129,23,16,0,0,0,0,0
1776866282072295,-1,-1,-1,-1,-1,-1,127,1858,6656,2296,0
1776866273749023,23,17,0,0,0,0,79,1866,7168,1016,0
1776866273749029,24,16,0,0,0,0,31,1874,8448,1272,0
1776866273617961,25,16,0,0,0,0,239,1881,7424,1528,0
1776866273683495,24,15,0,0,0,0,191,1889,7168,1272,0
1776866273683498,25,16,0,0,0,0,143,1897,8448,2296,0
1776866273617959,26,16,0,0,0,0,95,1905,7936,3064,0
1776866273683496,27,17,0,0,0,0,47,1913,5888,2040,0
1776866273683495,26,17,0,0,0,0,255,1920,6656,2552,0
1776866273749037,25,15,0,0,0,0,207,1928,6400,3832,0
1776866273814568,24,15,0,0,0,0,255,-1,-1,-1,255
1776866282072295,-1,-1,-28513,7,-2021,11,57,-32513,5887,3840,0
1776861987105000,0,0,-26513,7,-2021,11,62,32767,6399,3840,0
1776861987105000,0,0,-24513,7,-2023,8,60,32511,7167,3584,0
1776861987105000,0,0,-22513,7,-2026,11,54,-32513,6911,4096,0
1776861987105000,0,0,-20512,7,-2022,13,59,-32257,6655,4096,0
1776861987105000,0,0,-18512,7,-2019,13,60,32767,6399,4096,0
1776861987105000,0,0,-16512,7,-2018,10,63,-32513,6143,4096,0
1776861987105000,0,0,-14512,7,-2021,9,66,32767,6143,4096,0
1776861987105000,0,0,-12512,7,-2023,10,69,-32513,6399,4352,0
1776861987105000,0,0,-10512,7,-2024,14,60,-32513,6399,4096,0
1776861987105000,0,0,-1,-1,-1,-1,255,-1,-1,-1,255
1776861987620776,-2019,8,-198,-126,25,15,0,0,0,0,0
1776861987622776,-2020,7,-190,-130,24,14,0,0,0,0,0
1776861987624776,-2020,9,-183,-130,22,14,0,0,0,0,0
1776861987626776,-2020,10,-180,-129,23,16,0,0,0,0,0
1776861987628776,-2022,8,-197,-129,24,16,0,0,0,0,0
1776861987630776,-2026,7,-184,-131,24,15,0,0,0,0,0
1776861987632776,-2023,13,-187,-129,24,16,0,0,0,0,0
1776861987634776,-2020,9,-188,-130,23,16,0,0,0,0,0
1776861987636776,-2018,6,-188,-130,24,17,0,0,0,0,0
1776861987638776,-2022,9,-188,-127,26,15,0,0,0,0,0
1776866282072295,-1,-1,-1,-1,-1,-1,224,2092,5888,3064,0
1776866273814573,26,16,0,0,0,0,176,2100,6656,4088,0
1776866273749031,26,15,0,0,0,0,128,2108,7680,4600,0
1776866273749037,26,16,0,0,0,0,80,2116,7936,5112,0
1776866273814566,26,16,0,0,0,0,32,2124,6400,4344,0
1776866273617957,26,15,0,0,0,0,240,2131,7936,2552,0
1776866273683497,26,15,0,0,0,0,192,2139,7936,2808,0
1776866273617962,26,17,0,0,0,0,144,2147,7168,3064,0
1776866273683497,26,17,0,0,0,0,96,2155,8704,2552,0
1776866273683498,27,16,0,0,0,0,48,2163,8192,2808,0
1776866273749036,26,16,0,0,0,0,255,-1,-1,-1,255
1776866282072295,-1,-1,31488,8,-2018,12,69,32767,7423,4096,0
1776861987105000,0,0,-32048,8,-2016,13,67,32255,6911,3840,0
1776861987105000,0,0,-30048,8,-2019,13,61,32511,6143,3840,0
1776861987105000,0,0,-28048,8,-2018,11,66,-32513,6655,4096,0
1776861987105000,0,0,-26048,8,-2017,9,64,-32513,6655,4608,0
1776861987105000,0,0,-24048,8,-2014,7,66,32767,6399,4096,0
1776861987105000,0,0,-22048,8,-2021,9,73,-32513,6143,3584,0
1776861987105000,0,0,-20048,8,-2024,7,62,-32513,6399,3584,0
1776861987105000,0,0,-18048,8,-2023,8,67,-32513,6399,3840,0
1776861987105000,0,0,-16048,8,-2023,7,61,32767,6399,4352,0
1776861987105000,0,0,-1,-1,-1,-1,255,-1,-1,-1,255
1776861987680776,-2017,11,-184,-129,23,14,0,0,0,0,0
1776861987682776,-2023,10,-192,-129,22,15,0,0,0,0,0
1776861987684776,-2025,9,-198,-129,23,18,0,0,0,0,0
1776861987686776,-2021,12,-191,-130,24,19,0,0,0,0,0
1776861987688776,-2023,11,-187,-130,27,17,0,0,0,0,0
1776861987690776,-2027,10,-194,-128,27,16,0,0,0,0,0
1776861987692776,-2022,7,-191,-128,26,16,0,0,0,0,0
1776861987694776,-2020,8,-198,-128,26,18,0,0,0,0,0
1776861987696776,-2021,10,-195,-129,25,18,0,0,0,0,0
1776861987698776,-2020,12,-189,-126,25,16,0,0,0,0,0
1776866282072295,-1,-1,-1,-1,-1,-1,64,2327,6400,3320,0
1776866273880104,22,16,0,0,0,0,16,2335,5888,3832,0
1776866273749025,23,15,0,0,0,0,224,2342,7424,2808,0
1776866273617961,23,14,0,0,0,0,176,2350,7936,2296,0
1776866273617958,24,15,0,0,0,0,128,2358,7168,3320,0
1776866273683491,27,14,0,0,0,0,80,2366,7936,4088,0
1776866273749028,25,15,0,0,0,0,32,2374,6912,4088,0
1776866273814570,26,17,0,0,0,0,240,2381,7680,3320,0
1776866273814568,26,17,0,0,0,0,192,2389,6912,3320,0
1776866273617955,24,17,0,0,0,0,144,2397,5888,2808,0
1776866273552430,24,16,0,0,0,0,255,-1,-1,-1,255
1776866282072295,-1,-1,25952,9,-2020,13,62,32511,6911,4096,0
1776861987105000,0,0,27952,9,-2015,14,58,-32513,6911,3584,0
1776861987105000,0,0,29952,9,-2018,9,64,32767,6399,4096,0
1776861987105000,0,0,31952,9,-2024,11,72,-32513,6655,4096,0
1776861987105000,0,0,-31584,9,-2028,8,71,32767,6911,3840,0
1776861987105000,0,0,-29584,9,-2023,10,70,-32257,6399,3840,0
1776861987105000,0,0,-27584,9,-2026,10,65,-32513,6399,4096,0
1776861987105000,0,0,-25584,9,-2029,13,68,32255,6399,4096,0
1776861987105000,0,0,-23584,9,-2022,13,67,32511,6399,4608,0
1776861987105000,0,0,-21584,9,-2018,14,67,32767,6655,4096,0
1776861987105000,0,0,-1,-1,-1,-1,255,-1,-1,-1,255
1776861987740776,-2019,9,-184,-128,25,16,0,0,0,0,0
1776861987742776,-2018,12,-189,-127,23,16,0,0,0,0,0
1776861987744776,-2016,9,-198,-128,24,16,0,0,0,0,0
1776861987746776,-2023,12,-197,-129,23,16,0,0,0,0,0
1776861987748776,-2022,16,-199,-129,24,16,0,0,0,0,0
1776861987750776,-2025,11,-193,-130,24,16,0,0,0,0,0
1776861987752776,-2029,13,-190,-131,24,16,0,0,0,0,0
1776861987754776,-2025,9,-192,-129,26,15,0,0,0,0,0
1776861987756776,-2023,13,-190,-128,25,14,0,0,0,0,0
1776861987758776,-2024,11,-186,-126,27,15,0,0,0,0,0
1776866282072295,-1,-1,-1,-1,-1,-1,160,2561,5632,1528,0
1776866273814576,25,14,0,0,0,0,112,2569,6912,1528,0
1776866273749030,22,15,0,0,0,0,64,2577,5888,2552,0
1776866273814568,23,16,0,0,0,0,16,2585,6400,2552,0
1776866273749033,25,16,0,0,0,0,224,2592,5632,1784,0
1776866273749035,25,15,0,0,0,0,176,2600,5888,2296,0
1776866273749022,25,16,0,0,0,0,128,2608,5632,2296,0
1776866273683492,26,18,0,0,0,0,80,2616,7424,2808,0
1776866273683504,24,15,0,0,0,0,32,2624,6656,3320,0
1776866273683508,24,14,0,0,0,0,240,2631,7680,3064,0
1776866273814567,27,15,0,0,0,0,255,-1,-1,-1,255
1776866282072295,-1,-1,20416,10,-2028,9,67,32767,7167,4096,0
1776861987105000,0,0,22417,10,-2021,8,59,32511,7167,3840,0
1776861987105000,0,0,24414,10,-2023,6,57,32767,6655,3840,0
1776861987105000,0,0,26414,10,-2023,13,59,32767,6655,4096,0
1776861987105000,0,0,28414,10,-2018,13,59,-32257,6911,4096,0
1776861987105000,0,0,30414,10,-2025,12,58,-32513,6911,3840,0
1776861987105000,0,0,32414,10,-2023,14,65,32767,7167,4096,0
1776861987105000,0,0,-31122,10,-2024,15,66,-32257,7167,4096,0
1776861987105000,0,0,-29122,10,-2022,8,66,-32257,6911,3584,0
1776861987105000,0,0,-27122,10,-2025,12,68,32767,6655,3840,0
1776861987105000,0,0,-1,-1,-1,-1,255,-1,-1,-1,255
1776861987800774,-2020,15,-186,-130,25,18,0,0,0,0,0
1776861987802774,-2020,6,-186,-131,25,18,0,0,0,0,0
1776861987804774,-2025,8,-189,-131,24,16,0,0,0,0,0
1776861987806774,-2020,7,-183,-130,26,16,0,0,0,0,0
1776861987808774,-2021,12,-194,-129,24,16,0,0,0,0,0
1776861987810774,-2022,3,-193,-128,22,17,0,0,0,0,0
1776861987812774,-2017,4,-195,-129,23,19,0,0,0,0,0
1776861987814774,-2022,7,-193,-128,25,18,0,0,0,0,0
1776861987816774,-2023,12,-191,-129,24,15,0,0,0,0,0
1776861987818774,-2031,15,-190,-128,22,14,0,0,0,0,0
1776866282072295,-1,-1,-1,-1,-1,-1,254,2795,5120,3320,0
1776866273814568,23,15,0,0,0,0,206,2803,5888,2296,0
1776866273880105,25,16,0,0,0,0,158,2811,5376,2552,0
1776866273814566,25,16,0,0,0,0,110,2819,6400,3064,0
1776866273814572,24,15,0,0,0,0,62,2827,7424,2552,0
1776866273749033,24,15,0,0,0,0,14,2835,6912,2296,0
1776866273814567,25,17,0,0,0,0,222,2842,6400,2296,0
1776866273814566,25,16,0,0,0,0,174,2850,7424,3320,0
1776866273814570,27,17,0,0,0,0,126,2858,7424,3320,0
1776866273880098,27,15,0,0,0,0,78,2866,7168,3064,0
1776866273683497,22,14,0,0,0,0,255,-1,-1,-1,255
1776866282072295,-1,-1,14878,11,-2025,14,70,32511,5631,3840,0
1776861987105000,0,0,16878,11,-2023,13,62,32767,6143,4096,0
1776861987105000,0,0,18878,11,-2024,7,62,-32257,6143,4096,0
1776861987105000,0,0,20878,11,-2025,10,61,-32513,6143,3840,0
1776861987105000,0,0,22878,11,-2027,13,63,32767,6399,4352,0
1776861987105000,0,0,24878,11,-2021,8,64,-32513,6399,4096,0
1776861987105000,0,0,26878,11,-2021,10,55,-32513,6911,4096,0
1776861987105000,0,0,28878,11,-2020,12,57,-32257,6911,4608,0
1776861987105000,0,0,30878,11,-2024,9,64,32767,6655,4864,0
1776861987105000,0,0,-32658,11,-2020,10,58,32511,6399,4608,0
1776861987105000,0,0,-1,-1,-1,-1,255,-1,-1,-1,255
1776861987860774,-2019,7,-191,-129,24,17,0,0,0,0,0
1776861987910539,-2025,8,-185,-128,25,16,0,0,0,0,0
1776861987912539,-2026,14,-182,-128,24,15,0,0,0,0,0
1776861987914539,-2030,15,-188,-128,23,16,0,0,0,0,0
1776861987916539,-2023,8,-195,-129,26,18,0,0,0,0,0
1776861987918539,-2020,14,-189,-128,29,17,0,0,0,0,0
1776861987920539,-2019,13,-186,-128,28,16,0,0,0,0,0
1776861987922539,-2021,12,-196,-129,27,15,0,0,0,0,0
1776861987924539,-2024,11,-204,-129,27,15,0,0,0,0,0
1776861987926539,-2023,18,-197,-128,27,16,0,0,0,0,0
1776866282072295,-1,-1,-1,-1,-1,-1,243,3216,6144,3320,0
1776866273683493,25,17,0,0,0,0,195,3224,6400,3064,0
1776866273617959,23,16,0,0,0,0,147,3232,6912,3064,0
1776866273617969,23,15,0,0,0,0,99,3240,6400,3576,0
1776866273617966,24,15,0,0,0,0,51,3248,6656,3320,0
1776866273683505,23,16,0,0,0,0,3,3256,6400,2296,0
1776866273749040,24,16,0,0,0,0,211,3263,6144,760,0
1776866273880109,25,15,0,0,0,0,163,3271,6144,2040,0
1776866273749036,26,17,0,0,0,0,115,3279,6400,2040,0
1776866273617959,26,19,0,0,0,0,67,3287,6400,1528,0
1776866273749027,24,18,0,0,0,0,255,-1,-1,-1,255
1776866282072295,-1,-1,-8429,12,-2021,8,63,-32257,6399,4608,0
1776861987105000,0,0,-6429,12,-2019,5,70,-31745,6399,4096,0
1776861987105000,0,0,-4429,12,-2023,6,73,-32257,6143,3584,0
1776861987105000,0,0,-2429,12,-2019,4,61,-32513,6655,3840,0
1776861987105000,0,0,-429,12,-2019,4,51,-32513,6143,3840,0
1776861987105000,0,0,1571,13,-2025,12,52,32767,6655,4096,0
1776861987105000,0,0,3571,13,-2018,13,61,32767,7423,4096,0
1776861987105000,0,0,5571,13,-2020,10,72,32767,6911,4352,0
1776861987105000,0,0,7571,13,-2020,17,62,-32513,6143,4608,0
1776861987105000,0,0,9571,13,-2022,12,63,-32513,5887,4608,0
1776861987105000,0,0,-1,-1,-1,-1,255,-1,-1,-1,255
1776861987968539,-2021,9,-200,-128,22,17,0,0,0,0,0
1776861987970539,-2016,9,-192,-127,23,17,0,0,0,0,0
1776861987972539,-2015,4,-178,-128,24,16,0,0,0,0,0
1776861987974539,-2022,2,-191,-130,24,15,0,0,0,0,0
1776861987976539,-2029,8,-186,-129,26,15,0,0,0,0,0
1776861987978539,-2022,10,-194,-128,25,17,0,0,0,0,0
1776861987980539,-2021,8,-198,-128,25,16,0,0,0,0,0
1776861987982539,-2023,8,-197,-128,24,16,0,0,0,0,0
1776861987984539,-2022,6,-183,-128,23,16,0,0,0,0,0
1776861987986539,-2021,7,-192,-127,22,17,0,0,0,0,0
1776866282072295,-1,-1,-1,-1,-1,-1,83,3451,6400,2040,0
1776866273814567,23,17,0,0,0,0,35,3459,5632,2552,0
1776866273683498,26,16,0,0,0,0,243,3466,6144,3064,0
1776866273683497,26,16,0,0,0,0,195,3474,6144,2808,0
1776866273617960,27,15,0,0,0,0,147,3482,5376,2040,0
1776866273683500,26,16,0,0,0,0,99,3490,6144,2296,0
1776866273749037,26,17,0,0,0,0,51,3498,6400,4344,0
1776866273683486,25,16,0,0,0,0,3,3506,6144,2808,0
1776866273552425,26,18,0,0,0,0,211,3513,7424,2552,0
1776866273552433,26,15,0,0,0,0,163,3521,7424,3576,0
1776866273617967,27,15,0,0,0,0,255,-1,-1,-1,255
1776866282072295,-1,-1,-13965,13,-2021,13,73,32511,7167,3840,0
1776861987105000,0,0,-11965,13,-2023,9,62,32511,7167,3840,0
1776861987105000,0,0,-9965,13,-2015,10,71,32767,6911,3840,0
1776861987105000,0,0,-7965,13,-2019,11,68,32767,6655,4096,0
1776861987105000,0,0,-5965,13,-2017,18,64,32767,6655,4608,0
1776861987105000,0,0,-3965,13,-2016,13,70,32767,6911,3840,0
1776861987105000,0,0,-1965,13,-2014,10,65,32767,6399,3584,0
1776861987105000,0,0,35,14,-2019,12,69,32767,6399,3840,0
1776861987105000,0,0,2035,14,-2018,15,69,-32513,6399,3840,0
1776861987105000,0,0,4035,14,-2021,12,62,32767,6399,4352,0
1776861987105000,0,0,-1,-1,-1,-1,255,-1,-1,-1,255
1776861988028539,-2022,9,-196,-129,23,17,0,0,0,0,0
1776861988030539,-2025,11,-178,-128,24,17,0,0,0,0,0
1776861988032539,-2026,14,-198,-127,24,16,0,0,0,0,0
1776861988034539,-2028,9,-201,-126,25,15,0,0,0,0,0
1776861988036539,-2028,5,-194,-128,25,16,0,0,0,0,0
1776861988038539,-2022,12,-189,-128,24,17,0,0,0,0,0
1776861988040539,-2018,6,-195,-128,26,16,0,0,0,0,0
1776861988042539,-2020,1,-200,-129,25,16,0,0,0,0,0
1776861988044539,-2018,3,-193,-131,24,16,0,0,0,0,0
1776861988046539,-2015,2,-198,-130,24,16,0,0,0,0,0
1776866282072295,-1,-1,-1,-1,-1,-1,179,3685,6912,2808,0
1776866273749024,25,16,0,0,0,0,131,3693,7424,4344,0
1776866273814569,26,18,0,0,0,0,83,3701,6144,2808,0
1776866273683493,27,17,0,0,0,0,35,3709,5376,3576,0
1776866273683492,25,16,0,0,0,0,243,3716,5120,1784,0
1776866273683496,24,17,0,0,0,0,195,3724,5120,2040,0
1776866273617961,22,16,0,0,0,0,147,3732,4608,2296,0
1776866273749034,22,16,0,0,0,0,99,3740,5376,2040,0
1776866273617955,25,16,0,0,0,0,51,3748,5376,3064,0
1776866273683494,27,16,0,0,0,0,3,3756,7168,3064,0
1776866273814564,26,15,0,0,0,0,255,-1,-1,-1,255
1776866282072295,-1,-1,-19501,14,-2020,10,58,-32257,6399,3840,0
1776861987105000,0,0,-17501,14,-2020,10,66,-32257,6399,3840,0
1776861987105000,0,0,-15501,14,-2022,11,64,-32257,6655,4096,0
1776861987105000,0,0,-13501,14,-2022,10,56,-32257,6655,4352,0
1776861987105000,0,0,-11501,14,-2024,12,63,-32513,6399,3840,0
1776861987105000,0,0,-9501,14,-2026,7,64,-32257,6399,3584,0
1776861987105000,0,0,-7501,14,-2029,5,62,32511,6399,3840,0
1776861987105000,0,0,-5501,14,-2030,7,62,-32513,6143,4096,0
1776861987105000,0,0,-3501,14,-2028,6,68,-32513,6655,3840,0
1776861987105000,0,0,-1501,14,-2026,5,68,32767,7167,3840,0
1776861987105000,0,0,-1,-1,-1,-1,255,-1,-1,-1,255
1776861988088539,-2022,10,-191,-128,25,15,0,0,0,0,0
1776861988090539,-2022,13,-196,-130,25,14,0,0,0,0,0
1776861988092539,-2016,6,-196,-129,24,15,0,0,0,0,0
1776861988094539,-2019,11,-192,-129,23,17,0,0,0,0,0
1776861988096539,-2021,10,-192,-130,25,17,0,0,0,0,0
1776861988098539,-2025,6,-186,-130,25,16,0,0,0,0,0
1776861988100539,-2029,9,-191,-128,27,14,0,0,0,0,0
1776861988102539,-2021,9,-185,-126,26,14,0,0,0,0,0
1776861988104539,-2023,12,-184,-127,23,16,0,0,0,0,0
1776861988106541,-2022,11,-191,-128,22,17,0,0,0,0,0
1776866282072295,-1,-1,-1,-1,-1,-1,20,3920,7424,3064,0
1776866273814574,24,16,0,0,0,0,228,3927,6656,2552,0
1776866273749036,24,16,0,0,0,0,180,3935,5888,2552,0
1776866273683494,24,14,0,0,0,0,132,3943,7168,3064,0
1776866273814564,26,16,0,0,0,0,84,3951,6656,2296,0
1776866273814561,26,16,0,0,0,0,36,3959,6144,3064,0
1776866273749029,24,16,0,0,0,0,244,3966,7168,2040,0
1776866273749030,25,16,0,0,0,0,196,3974,7168,2296,0
1776866273749024,26,16,0,0,0,0,148,3982,7936,2040,0
1776866273749029,23,17,0,0,0,0,100,3990,6400,2808,0
1776866273617957,21,17,0,0,0,0,255,-1,-1,-1,255
1776866282072295,-1,-1,-25036,15,-2025,6,62,32511,6143,3840,0
1776861987105000,0,0,-23036,15,-2025,2,65,32767,6655,3840,0
1776861987105000,0,0,-21036,15,-2025,4,64,-32513,6655,3840,0
1776861987105000,0,0,-19036,15,-2028,11,67,32767,7167,3840,0
1776861987105000,0,0,-17036,15,-2029,9,85,-32513,7423,4096,0
1776861987105000,0,0,-15036,15,-2028,9,71,32767,6911,4352,0
1776861987105000,0,0,-13036,15,-2029,2,66,32767,6911,4096,0
1776861987105000,0,0,-11036,15,-2028,5,61,32767,6143,4352,0
1776861987105000,0,0,-9036,15,-2026,3,67,32767,5887,4096,0
1776861987105000,0,0,-7036,15,-2030,6,72,32767,6399,3840,0
1776861987105000,0,0,-1,-1,-1,-1,255,-1,-1,-1,255
1776861988148540,-2028,7,-187,-127,25,15,0,0,0,0,0
1776861988150540,-2027,9,-181,-127,26,16,0,0,0,0,0
1776861988152540,-2020,12,-197,-128,28,16,0,0,0,0,0
1776861988154540,-2019,13,-195,-128,25,17,0,0,0,0,0
1776861988156540,-2023,14,-186,-129,25,16,0,0,0,0,0
1776861988158540,-2027,14,-188,-128,27,16,0,0,0,0,0
1776861988160540,-2019,11,-192,-130,26,16,0,0,0,0,0
1776861988162540,-2018,10,-198,-128,25,14,0,0,0,0,0
1776861988164540,-2018,13,-191,-129,23,15,0,0,0,0,0
1776861988166540,-2020,5,-193,-131,24,17,0,0,0,0,0
1776866282072295,-1,-1,-1,-1,-1,-1,116,4154,6144,2552,0
1776866273683493,24,17,0,0,0,0,68,4162,6144,2808,0
1776866273749029,25,18,0,0,0,0,20,4170,7168,2808,0
1776866273749022,25,18,0,0,0,0,228,4177,7424,3576,0
1776866273945641,25,17,0,0,0,0,180,4185,7936,2808,0
1776866273749034,25,17,0,0,0,0,132,4193,8192,2296,0
1776866273683486,26,16,0,0,0,0,84,4201,7680,3064,0
1776866273617964,26,17,0,0,0,0,36,4209,6912,2808,0
1776866273617965,27,16,0,0,0,0,244,4216,7168,3064,0
1776866273683503,26,14,0,0,0,0,196,4224,5888,2296,0
1776866273749028,26,14,0,0,0,0,255,-1,-1,-1,255
1776866282072295,-1,-1,-30572,16,-2028,11,65,-32257,6911,3584,0
1776861987105000,0,0,-28572,16,-2024,9,70,-32257,6911,3840,0
1776861987105000,0,0,-26572,16,-2021,13,63,-32513,6655,3584,0
1776861987105000,0,0,-24572,16,-2020,9,59,-32257,6655,3840,0
1776861987105000,0,0,-22572,16,-2024,9,57,32767,6399,4096,0
1776861987105000,0,0,-20572,16,-2019,12,51,32511,6399,4096,0
1776861987105000,0,0,-18572,16,-2018,10,55,32255,6655,4096,0
1776861987105000,0,0,-16572,16,-2021,10,67,32255,6911,3840,0
1776861987105000,0,0,-14572,16,-2025,10,71,32511,6911,3840,0
1776861987105000,0,0,-12572,16,-2020,10,63,32511,6911,4096,0
1776861987105000,0,0,-1,-1,-1,-1,255,-1,-1,-1,255
1776861988208540,-2021,13,-193,-130,26,15,0,0,0,0,0
1776861988210540,-2020,13,-199,-129,26,16,0,0,0,0,0
1776861988212540,-2021,11,-189,-127,23,15,0,0,0,0,0
1776861988214540,-2027,9,-189,-129,22,17,0,0,0,0,0
1776861988216540,-2028,11,-190,-128,23,16,0,0,0,0,0
1776861988218540,-2027,9,-192,-129,24,15,0,0,0,0,0
1776861988220540,-2027,9,-190,-129,23,16,0,0,0,0,0
1776861988222540,-2029,9,-188,-128,25,16,0,0,0,0,0
1776861988224540,-2028,10,-186,-127,24,15,0,0,0,0,0
1776861988226540,-2025,10,-193,-130,24,16,0,0,0,0,0
1776866282072295,-1,-1,-1,-1,-1,-1,212,4388,4608,2552,0
1776866273617956,24,18,0,0,0,0,57,4583,5888,1528,0
1776866273814560,25,18,0,0,0,0,9,4591,6656,2040,0
1776866273880101,24,16,0,0,0,0,217,4598,4352,3576,0
1776866273683500,24,15,0,0,0,0,169,4606,5632,3320,0
1776866273617952,23,17,0,0,0,0,121,4614,5376,3320,0
1776866273683487,25,14,0,0,0,0,73,4622,5120,3320,0
1776866273749028,26,13,0,0,0,0,25,4630,5376,3320,0
1776866273749031,24,14,0,0,0,0,233,4637,4608,2296,0
1776866273552425,22,14,0,0,0,0,185,4645,6912,2296,0
1776866273683502,25,16,0,0,0,0,255,-1,-1,-1,255
1776866282072295,-1,-1,11657,18,-2027,8,63,-32513,7167,3840,0
1776861987105000,0,0,13657,18,-2028,11,56,-32513,7167,4096,0
1776861987105000,0,0,15657,18,-2025,11,60,-32257,6911,4352,0
1776861987105000,0,0,17657,18,-2019,6,59,-32001,6655,3840,0
1776861987105000,0,0,19657,18,-2023,5,65,-32513,6655,4608,0
1776861987105000,0,0,21657,18,-2021,8,64,-32257,6655,4096,0
1776861987105000,0,0,23657,18,-2023,6,68,-32513,7167,3840,0
1776861987105000,0,0,25657,18,-2022,6,62,32767,7167,4096,0
1776861987105000,0,0,27657,18,-2021,13,61,-32513,6911,4352,0
1776861987105000,0,0,29657,18,-2020,8,61,-32513,6655,4352,0
1776861987105000,0,0,-1,-1,-1,-1,255,-1,-1,-1,255
1776861988316305,-2014,7,-190,-130,23,18,0,0,0,0,0
1776861988318305,-2011,9,-187,-130,24,17,0,0,0,0,0
1776861988320305,-2015,3,-195,-129,24,15,0,0,0,0,0
1776861988322305,-2020,4,-192,-130,25,16,0,0,0,0,0
1776861988324305,-2023,7,-194,-130,26,16,0,0,0,0,0
1776861988326305,-2020,17,-192,-130,24,15,0,0,0,0,0
1776861988328305,-2020,15,-194,-128,23,15,0,0,0,0,0
1776861988330305,-2016,13,-193,-128,23,18,0,0,0,0,0
1776861988332305,-2020,12,-195,-129,24,18,0,0,0,0,0
1776861988334305,-2021,11,-183,-130,26,17,0,0,0,0,0
1776866282072295,-1,-1,-1,-1,-1,-1,201,4809,6656,4088,0
1776866273683505,24,16,0,0,0,0,153,4817,7936,2552,0
1776866273749040,25,17,0,0,0,0,105,4825,6912,2552,0
1776866273683492,25,17,0,0,0,0,57,4833,5632,2552,0
1776866273617955,23,16,0,0,0,0,9,4841,5632,2552,0
1776866273617962,24,15,0,0,0,0,217,4848,6912,3320,0
1776866273617964,25,15,0,0,0,0,169,4856,7168,3320,0
1776866273683500,24,16,0,0,0,0,121,4864,7680,2808,0
1776866273617962,24,18,0,0,0,0,73,4872,9216,2552,0
1776866273683497,24,16,0,0,0,0,25,4880,8448,2808,0
1776866273814561,25,15,0,0,0,0,255,-1,-1,-1,255
1776866282072295,-1,-1,6121,19,-2022,9,65,32767,6911,4096,0
1776861987105000,0,0,8121,19,-2021,8,69,32767,7167,3584,0
1776861987105000,0,0,10121,19,-2021,6,60,32767,7167,3328,0
1776861987105000,0,0,12121,19,-2024,8,65,-32513,7423,4096,0
1776861987105000,0,0,14121,19,-2028,7,70,-32513,7423,4096,0
1776861987105000,0,0,16121,19,-2027,8,68,-32257,7167,4096,0
1776861987105000,0,0,18121,19,-2025,9,70,32767,6655,3840,0
1776861987105000,0,0,20121,19,-2029,11,63,32767,6911,4352,0
1776861987105000,0,0,22121,19,-2029,11,66,32767,6399,3840,0
1776861987105000,0,0,24121,19,-2027,7,61,32767,6655,3584,0
1776861987105000,0,0,-1,-1,-1,-1,255,-1,-1,-1,255
1776861988376305,-2027,8,-201,-129,26,15,0,0,0,0,0
1776861988378305,-2026,6,-199,-129,24,18,0,0,0,0,0
1776861988380305,-2022,9,-191,-131,26,18,0,0,0,0,0
1776861988382305,-2025,6,-183,-129,26,17,0,0,0,0,0
1776861988384305,-2024,8,-187,-127,26,17,0,0,0,0,0
1776861988386305,-2022,12,-181,-128,28,17,0,0,0,0,0
1776861988388305,-2017,12,-182,-128,27,17,0,0,0,0,0
1776861988390305,-2014,15,-186,-126,25,16,0,0,0,0,0
1776861988392305,-2017,10,-183,-127,24,15,0,0,0,0,0
1776861988394305,-2018,9,-197,-129,25,14,0,0,0,0,0
1776866282072295,-1,-1,-1,-1,-1,-1,41,5044,7424,3320,0
1776866273683489,25,15,0,0,0,0,249,5051,7936,2040,0
1776866273749033,24,17,0,0,0,0,201,5059,8192,1272,0
1776866273749026,23,18,0,0,0,0,153,5067,6912,1784,0
1776866273749026,24,16,0,0,0,0,105,5075,6912,2552,0
1776866273683489,25,16,0,0,0,0,57,5083,8192,3576,0
1776866273683481,23,16,0,0,0,0,9,5091,6656,2296,0
1776866273683490,22,16,0,0,0,0,217,5098,6400,2296,0
1776866273617956,24,14,0,0,0,0,169,5106,7168,2552,0
1776866273683493,25,15,0,0,0,0,121,5114,7168,2296,0
1776866273552432,25,15,0,0,0,0,255,-1,-1,-1,255
1776866282072295,-1,-1,585,20,-2020,9,71,32767,6399,3840,0
1776861987105000,0,0,2585,20,-2022,10,73,32767,6399,4096,0
1776861987105000,0,0,4585,20,-2021,12,57,-32513,6399,4352,0
1776861987105000,0,0,6585,20,-2022,7,57,32767,6399,4608,0
1776861987105000,0,0,8585,20,-2021,9,66,32767,6143,4352,0
1776861987105000,0,0,10585,20,-2018,5,65,-32513,6399,3840,0
1776861987105000,0,0,12585,20,-2017,10,65,32255,6399,3840,0
1776861987105000,0,0,14585,20,-2022,10,66,32767,7167,3840,0
1776861987105000,0,0,16585,20,-2022,10,71,-32513,6911,3584,0
1776861987105000,0,0,18585,20,-2026,9,75,32511,6655,4096,0
1776861987105000,0,0,-1,-1,-1,-1,255,-1,-1,-1,255
1776861988436305,-2025,9,-185,-130,24,17,0,0,0,0,0
1776861988438305,-2028,13,-188,-129,24,17,0,0,0,0,0
1776861988440305,-2026,14,-191,-128,24,15,0,0,0,0,0
1776861988442305,-2024,12,-196,-126,23,14,0,0,0,0,0
1776861988444305,-2026,10,-196,-127,24,15,0,0,0,0,0
1776861988446305,-2026,8,-197,-128,26,15,0,0,0,0,0
1776861988448305,-2023,13,-196,-129,26,16,0,0,0,0,0
1776861988450305,-2024,9,-188,-129,25,15,0,0,0,0,0
1776861988452305,-2024,13,-185,-128,28,14,0,0,0,0,0
1776861988454305,-2019,9,-191,-127,29,14,0,0,0,0,0
1776866282072295,-1,-1,-1,-1,-1,-1,137,5278,6912,3320,0
1776866273683504,30,14,0,0,0,0,89,5286,7168,3320,0
1776866273617968,26,15,0,0,0,0,41,5294,7424,2296,0
1776866273683494,26,17,0,0,0,0,249,5301,6656,1272,0
1776866273617962,27,16,0,0,0,0,201,5309,6656,504,0
1776866273552425,26,15,0,0,0,0,153,5317,6912,1016,0
1776866273617964,25,15,0,0,0,0,105,5325,7936,3064,0
1776866273683501,23,17,0,0,0,0,57,5333,6912,3576,0
1776866273749034,23,18,0,0,0,0,9,5341,8192,3832,0
1776866273749035,22,17,0,0,0,0,217,5348,8960,2552,0
1776866273683498,24,15,0,0,0,0,255,-1,-1,-1,255
1776866282072295,-1,-1,-4951,20,-2021,10,75,32767,6143,3840,0
1776861987105000,0,0,-2951,20,-2015,9,79,-32513,6143,3840,0
1776861987105000,0,0,-951,20,-2014,11,70,32511,6911,3584,0
1776861987105000,0,0,1049,21,-2012,11,57,32767,6655,3840,0
1776861987105000,0,0,3049,21,-2013,10,53,-32513,6655,4096,0
1776861987105000,0,0,5049,21,-2015,9,55,32511,6911,4096,0
1776861987105000,0,0,7049,21,-2015,11,54,-32513,5631,4096,0
1776861987105000,0,0,9049,21,-2017,9,58,-32513,5631,4352,0
1776861987105000,0,0,11049,21,-2022,9,64,32511,6399,4352,0
1776861987105000,0,0,13049,21,-2021,8,72,32767,6399,4608,0
1776861987105000,0,0,-1,-1,-1,-1,255,-1,-1,-1,255
1776861988496305,-2017,7,-190,-129,24,15,0,0,0,0,0
1776861988498305,-2021,7,-186,-129,24,14,0,0,0,0,0
1776861988500305,-2021,12,-190,-128,25,14,0,0,0,0,0
1776861988502305,-2027,4,-191,-129,24,16,0,0,0,0,0
1776861988504305,-2023,10,-186,-129,23,17,0,0,0,0,0
1776861988506305,-2024,9,-189,-128,24,15,0,0,0,0,0
1776861988508305,-2025,14,-198,-129,23,15,0,0,0,0,0
1776861988510305,-2026,11,-191,-129,23,16,0,0,0,0,0
1776861988512305,-2018,13,-192,-129,24,16,0,0,0,0,0
1776861988514305,-2019,10,-196,-130,26,16,0,0,0,0,0
1776866282072295,-1,-1,-1,-1,-1,-1,233,5512,6144,2808,0
1776866273617957,28,16,0,0,0,0,185,5520,6656,2040,0
1776866273617959,28,16,0,0,0,0,137,5528,6912,3320,0
1776866273683495,27,17,0,0,0,0,89,5536,7424,3320,0
1776866273749034,25,19,0,0,0,0,41,5544,6144,1528,0
1776866273749038,26,17,0,0,0,0,249,5551,6144,1784,0
1776866273749035,24,15,0,0,0,0,201,5559,7936,2808,0
1776866273617958,24,14,0,0,0,0,153,5567,6656,1784,0
1776866273552421,23,15,0,0,0,0,105,5575,6400,1528,0
1776866273683492,26,17,0,0,0,0,57,5583,7168,2040,0
1776866273683497,29,16,0,0,0,0,255,-1,-1,-1,255
1776866282072295,-1,-1,-10487,21,-2016,12,60,32767,7423,4352,0
1776861987105000,0,0,-8487,21,-2025,9,60,-32513,6911,3840,0
1776861987105000,0,0,-6487,21,-2022,7,57,32767,6399,4096,0
1776861987105000,0,0,-4487,21,-2023,9,53,32511,6655,4096,0
1776861987105000,0,0,-2487,21,-2027,10,57,-32513,6911,4096,0
1776861987105000,0,0,-487,21,-2021,7,69,-32513,6399,3840,0
1776861987105000,0,0,1513,22,-2017,6,69,-32513,6143,4096,0
1776861987105000,0,0,3513,22,-2015,7,73,-32513,6143,4096,0
1776861987105000,0,0,5513,22,-2020,10,76,32767,6143,3840,0
1776861987105000,0,0,7513,22,-2021,11,75,32767,6399,4096,0
1776861987105000,0,0,-1,-1,-1,-1,255,-1,-1,-1,255
1776861988556305,-2020,10,-189,-127,23,16,0,0,0,0,0
1776861988558305,-2018,16,-188,-129,23,15,0,0,0,0,0
1776861988560305,-2018,18,-191,-129,23,14,0,0,0,0,0
1776861988562305,-2013,13,-190,-130,22,16,0,0,0,0,0
1776861988564305,-2019,10,-187,-130,21,17,0,0,0,0,0
1776861988566305,-2021,3,-185,-130,21,15,0,0,0,0,0
1776861988568305,-2018,10,-199,-131,23,15,0,0,0,0,0
1776861988570305,-2018,12,-194,-130,26,14,0,0,0,0,0
1776861988572305,-2024,11,-198,-128,28,14,0,0,0,0,0
1776861988574305,-2025,12,-195,-128,28,15,0,0,0,0,0
1776866282072295,-1,-1,-1,-1,-1,-1,73,5747,5888,3576,0
1776866273814569,25,16,0,0,0,0,25,5755,6144,2808,0
1776866273749025,24,16,0,0,0,0,233,5762,5120,3064,0
1776866273749042,23,17,0,0,0,0,185,5770,5376,2808,0
1776866273814580,22,17,0,0,0,0,137,5778,5376,1528,0
1776866273683504,24,17,0,0,0,0,89,5786,6912,1272,0
1776866273683495,25,16,0,0,0,0,41,5794,6656,1528,0
1776866273749032,25,14,0,0,0,0,249,5801,5632,1528,0
1776866273683498,25,13,0,0,0,0,201,5809,5888,2296,0
1776866273749038,26,15,0,0,0,0,153,5817,6912,1272,0
1776866273683497,27,16,0,0,0,0,255,-1,-1,-1,255
1776866282072295,-1,-1,-16023,22,-2019,8,74,32767,6911,4096,0
1776861987105000,0,0,-31792,23,-2026,14,64,-32257,6143,3840,0
1776861987105000,0,0,-29791,23,-2025,13,62,32767,6911,3840,0
1776861987105000,0,0,-27791,23,-2020,11,55,32767,6911,4096,0
1776861987105000,0,0,-25791,23,-2020,7,53,32767,6655,4352,0
1776861987105000,0,0,-23791,23,-2023,11,57,32511,7167,4096,0
1776861987105000,0,0,-21791,23,-2025,8,59,-32513,7167,3840,0
1776861987105000,0,0,-19791,23,-2023,11,62,-32513,6911,3840,0
1776861987105000,0,0,-17791,23,-2019,11,66,-32513,6655,4096,0
1776861987105000,0,0,-15791,23,-2020,13,60,32767,6399,4352,0
1776861987105000,0,0,-1,-1,-1,-1,255,-1,-1,-1,255
1776861988664073,-2021,9,-189,-128,23,18,0,0,0,0,0
1776861988666073,-2023,15,-193,-127,24,17,0,0,0,0,0
1776861988668073,-2022,12,-197,-128,25,17,0,0,0,0,0
1776861988670073,-2023,6,-206,-127,24,17,0,0,0,0,0
1776861988672073,-2025,6,-192,-128,25,17,0,0,0,0,0
1776861988674073,-2024,3,-192,-129,27,16,0,0,0,0,0
1776861988676073,-2022,6,-194,-129,26,17,0,0,0,0,0
1776861988678073,-2020,12,-189,-129,26,17,0,0,0,0,0
1776861988680073,-2020,13,-195,-127,26,16,0,0,0,0,0
1776861988682073,-2019,17,-198,-127,25,15,0,0,0,0,0
1776866282072295,-1,-1,-1,-1,-1,-1,65,6168,7424,2040,0
1776866273814572,25,18,0,0,0,0,17,6176,7424,2552,0
1776866273683497,23,18,0,0,0,0,225,6183,7936,1272,0
1776866273683493,23,17,0,0,0,0,177,6191,6912,2552,0
1776866273683504,23,17,0,0,0,0,129,6199,5888,2808,0
1776866273683491,25,16,0,0,0,0,81,6207,6144,3576,0
1776866273683499,25,16,0,0,0,0,33,6215,7168,3576,0
1776866273617948,24,16,0,0,0,0,241,6222,8192,2552,0
1776866273749021,24,16,0,0,0,0,193,6230,6912,2552,0
1776866273749026,23,15,0,0,0,0,145,6238,7168,1272,0
1776866273749030,24,16,0,0,0,0,255,-1,-1,-1,255
1776866282072295,-1,-1,26209,24,-2020,8,61,32767,5887,4352,0
1776861987105000,0,0,28209,24,-2022,14,67,32767,6143,4096,0
1776861987105000,0,0,30209,24,-2023,13,66,32511,6655,4096,0
1776861987105000,0,0,32209,24,-2026,13,68,32767,6399,4096,0
1776861987105000,0,0,-31327,24,-2019,13,67,32511,6143,4352,0
1776861987105000,0,0,-29327,24,-2020,15,73,32511,6143,4608,0
1776861987105000,0,0,-27327,24,-2018,11,62,32511,6655,3840,0
1776861987105000,0,0,-25327,24,-2024,16,64,-32513,6655,4096,0
1776861987105000,0,0,-23327,24,-2023,7,66,-32257,6655,4352,0
1776861987105000,0,0,-21327,24,-2026,8,63,-32257,6143,3840,0
1776861987105000,0,0,-1,-1,-1,-1,255,-1,-1,-1,255
1776861988724073,-2019,6,-187,-127,24,15,0,0,0,0,0
1776861988726073,-2018,5,-185,-129,24,15,0,0,0,0,0
1776861988728073,-2018,6,-185,-128,25,15,0,0,0,0,0
1776861988730073,-2024,12,-185,-128,27,16,0,0,0,0,0
1776861988732073,-2024,4,-190,-128,28,18,0,0,0,0,0
1776861988734073,-2022,13,-193,-128,27,18,0,0,0,0,0
1776861988736073,-2023,7,-196,-128,26,17,0,0,0,0,0
1776861988738073,-2024,11,-195,-128,24,16,0,0,0,0,0
1776861988740073,-2026,10,-191,-127,25,16,0,0,0,0,0
1776861988742073,-2025,6,-194,-127,27,16,0,0,0,0,0
1776866282072295,-1,-1,-1,-1,-1,-1,161,6402,6656,3576,0
1776866273683494,27,16,0,0,0,0,113,6410,7168,4088,0
1776866273749030,25,15,0,0,0,0,65,6418,7680,2552,0
1776866273683500,24,16,0,0,0,0,17,6426,7936,3320,0
1776866273683500,26,17,0,0,0,0,225,6433,7680,2040,0
1776866273617960,25,16,0,0,0,0,177,6441,5888,3064,0
1776866273617964,24,17,0,0,0,0,129,6449,7936,3576,0
1776866273683505,24,17,0,0,0,0,81,6457,7168,2040,0
1776866273617958,24,17,0,0,0,0,33,6465,7680,1528,0
1776866273552425,25,16,0,0,0,0,241,6472,7424,3832,0
1776866273683507,26,16,0,0,0,0,255,-1,-1,-1,255
1776866282072295,-1,-1,20673,25,-2021,15,72,32255,6655,4352,0
1776861987105000,0,0,22673,25,-2027,13,63,32255,6655,4352,0
1776861987105000,0,0,24673,25,-2028,8,65,32255,6655,4096,0
1776861987105000,0,0,26673,25,-2020,8,63,32511,6399,4096,0
1776861987105000,0,0,28673,25,-2023,13,54,32511,6143,4352,0
1776861987105000,0,0,30673,25,-2022,7,64,31999,6399,4608,0
1776861987105000,0,0,32673,25,-2021,3,60,31999,6911,4096,0
1776861987105000,0,0,-30863,25,-2021,7,61,32767,7423,3840,0
1776861987105000,0,0,-28863,25,-2019,9,64,-32257,7167,3584,0
1776861987105000,0,0,-26863,25,-2019,13,66,32767,6911,4096,0
1776861987105000,0,0,-1,-1,-1,-1,255,-1,-1,-1,255
1776861988784073,-2020,5,-196,-128,26,17,0,0,0,0,0
1776861988786073,-2019,8,-193,-129,25,16,0,0,0,0,0
1776861988788073,-2017,13,-190,-131,24,16,0,0,0,0,0
1776861988790073,-2020,12,-191,-130,23,16,0,0,0,0,0
1776861988792073,-2018,9,-200,-129,26,17,0,0,0,0,0
1776861988794073,-2019,8,-194,-129,26,16,0,0,0,0,0
1776861988796073,-2025,7,-179,-128,24,15,0,0,0,0,0
1776861988798073,-2024,10,-192,-129,24,15,0,0,0,0,0
1776861988800073,-2025,14,-184,-129,24,17,0,0,0,0,0
1776861988802073,-2023,15,-181,-130,24,15,0,0,0,0,0
1776866282072295,-1,-1,-1,-1,-1,-1,1,6637,5632,4088,0
1776866273683502,24,14,0,0,0,0,209,6644,5376,4088,0
1776866273683490,24,16,0,0,0,0,161,6652,5632,760,0
1776866273683503,23,18,0,0,0,0,113,6660,4864,1528,0
1776866273749046,23,18,0,0,0,0,65,6668,6144,1272,0
1776866273749036,25,17,0,0,0,0,17,6676,7424,2296,0
1776866273683495,26,16,0,0,0,0,225,6683,4608,3064,0
1776866273814577,26,17,0,0,0,0,177,6691,5376,3064,0
1776866273683495,26,16,0,0,0,0,129,6699,6656,1784,0
1776866273749029,25,16,0,0,0,0,81,6707,7424,2040,0
1776866273749037,26,16,0,0,0,0,255,-1,-1,-1,255
1776866282072295,-1,-1,15137,26,-2022,7,60,-32257,6655,4608,0
1776861987105000,0,0,17137,26,-2022,2,55,-32513,6911,4352,0
1776861987105000,0,0,19137,26,-2020,6,54,-32257,6655,4096,0
1776861987105000,0,0,21137,26,-2021,8,62,32511,6655,3840,0
1776861987105000,0,0,23137,26,-2020,13,68,-32513,7167,4352,0
1776861987105000,0,0,25137,26,-2015,14,64,-32513,7167,4352,0
1776861987105000,0,0,27137,26,-2014,13,64,-32257,6399,4352,0
1776861987105000,0,0,29137,26,-2014,10,61,-32257,6143,4096,0
1776861987105000,0,0,31137,26,-2017,12,65,32767,6143,4096,0
1776861987105000,0,0,-32399,26,-2017,11,66,32767,6655,4096,0
1776861987105000,0,0,-1,-1,-1,-1,255,-1,-1,-1,255
1776861988844073,-2019,6,-190,-128,27,18,0,0,0,0,0
1776861988846073,-2017,10,-196,-128,25,16,0,0,0,0,0
1776861988848073,-2020,10,-184,-129,27,15,0,0,0,0,0
1776861988850073,-2021,6,-185,-128,27,16,0,0,0,0,0
1776861988852073,-2026,7,-194,-128,26,14,0,0,0,0,0
1776861988854073,-2026,14,-186,-128,25,15,0,0,0,0,0
1776861988856073,-2015,10,-191,-128,25,16,0,0,0,0,0
1776861988858073,-2017,11,-193,-129,23,16,0,0,0,0,0
1776861988860073,-2022,5,-193,-129,22,14,0,0,0,0,0
1776861988862073,-2023,6,-199,-129,22,14,0,0,0,0,0
1776866282072295,-1,-1,-1,-1,-1,-1,97,6871,5376,1016,0
1776866273683498,24,15,0,0,0,0,49,6879,6912,2552,0
1776866273617964,24,15,0,0,0,0,1,6887,6912,3064,0
1776866273683500,26,16,0,0,0,0,209,6894,5888,3576,0
1776866273617970,25,16,0,0,0,0,161,6902,6144,3064,0
1776866273617963,26,14,0,0,0,0,113,6910,4608,2040,0
1776866273749025,24,15,0,0,0,0,65,6918,6144,2808,0
1776866273749014,24,16,0,0,0,0,17,6926,6400,2296,0
1776866273814565,27,16,0,0,0,0,225,6933,6400,2040,0
1776866273617964,29,16,0,0,0,0,177,6941,6912,1784,0
1776866273617956,26,16,0,0,0,0,255,-1,-1,-1,255
1776866282072295,-1,-1,9601,27,-2022,7,60,32767,6399,4608,0
1776861987105000,0,0,11601,27,-2021,10,55,32767,7167,4608,0
1776861987105000,0,0,13601,27,-2021,9,57,32767,7167,4352,0
1776861987105000,0,0,15601,27,-2025,7,68,32767,6655,3840,0
1776861987105000,0,0,17601,27,-2027,12,62,32767,6399,4096,0
1776861987105000,0,0,19601,27,-2023,7,60,32511,6143,4352,0
1776861987105000,0,0,21601,27,-2019,9,67,-32513,6143,4352,0
1776861987105000,0,0,23601,27,-2020,8,68,-32257,6655,4096,0
1776861987105000,0,0,25601,27,-2023,11,69,-32513,7423,3840,0
1776861987105000,0,0,27601,27,-2019,10,64,-32513,6911,4096,0
1776861987105000,0,0,-1,-1,-1,-1,255,-1,-1,-1,255
1776861988904073,-2019,10,-191,-129,25,17,0,0,0,0,0
1776861988906073,-2024,10,-190,-130,25,18,0,0,0,0,0
1776861988908073,-2019,10,-191,-130,25,17,0,0,0,0,0
1776861988910073,-2020,9,-188,-129,24,16,0,0,0,0,0
1776861988912073,-2020,9,-179,-130,25,15,0,0,0,0,0
1776861988914073,-2018,8,-184,-130,27,15,0,0,0,0,0
1776861988916073,-2017,9,-185,-131,26,16,0,0,0,0,0
1776861988918073,-2019,7,-179,-130,25,18,0,0,0,0,0
1776861988920073,-2018,13,-176,-131,27,17,0,0,0,0,0
1776861988922073,-2022,16,-190,-130,27,16,0,0,0,0,0
1776866282072295,-1,-1,-1,-1,-1,-1,193,7105,7168,3320,0
1776866273617954,26,17,0,0,0,0,145,7113,8448,2808,0
1776866273683487,23,18,0,0,0,0,97,7121,7424,2040,0
1776866273683488,21,17,0,0,0,0,49,7129,5632,2808,0
1776866273617961,23,16,0,0,0,0,1,7137,5120,2552,0
1776866273683500,24,16,0,0,0,0,209,7144,5632,3320,0
1776866273683503,23,15,0,0,0,0,161,7152,5120,2808,0
1776866273683500,22,17,0,0,0,0,113,7160,4864,3576,0
1776866273683499,24,17,0,0,0,0,65,7168,4352,2040,0
1776866273683490,25,17,0,0,0,0,17,7176,5888,2552,0
1776866273617945,23,15,0,0,0,0,255,-1,-1,-1,255
1776866282072295,-1,-1,4065,28,-2027,11,65,32767,5887,3584,0
1776861987105000,0,0,6065,28,-2032,10,59,32767,6399,3584,0
1776861987105000,0,0,8065,28,-2024,11,53,32767,6655,3840,0
1776861987105000,0,0,10065,28,-2025,5,52,32767,6911,3840,0
1776861987105000,0,0,12065,28,-2025,10,57,32767,6399,3840,0
1776861987105000,0,0,14065,28,-2024,14,60,32767,6911,3584,0
1776861987105000,0,0,16065,28,-2022,8,64,32511,6655,3840,0
1776861987105000,0,0,18065,28,-2025,11,65,32511,6143,4352,0
1776861987105000,0,0,20065,28,-2027,11,60,32255,6399,4352,0
1776861987105000,0,0,22065,28,-2024,13,71,32767,6911,4096,0
1776861987105000,0,0,-1,-1,-1,-1,255,-1,-1,-1,255
1776861988964073,-2026,9,-193,-129,27,16,0,0,0,0,0
1776861989016382,-2025,6,-184,-128,21,16,0,0,0,0,0
1776861989018382,-2026,11,-188,-129,24,14,0,0,0,0,0
1776861989020382,-2019,13,-189,-130,26,15,0,0,0,0,0
1776861989022382,-2025,17,-197,-129,26,16,0,0,0,0,0
1776861989024382,-2028,9,-199,-126,27,15,0,0,0,0,0
1776861989026382,-2025,8,-196,-128,24,17,0,0,0,0,0
1776861989028382,-2024,12,-198,-128,23,15,0,0,0,0,0
1776861989030382,-2024,10,-191,-128,23,16,0,0,0,0,0
1776861989032382,-2025,6,-194,-128,24,15,0,0,0,0,0
1776866282072295,-1,-1,-1,-1,-1,-1,166,7536,5632,2808,0
1776866273683496,25,14,0,0,0,0,118,7544,5632,3832,0
1776866273814575,26,16,0,0,0,0,70,7552,5632,4344,0
1776866273749040,27,15,0,0,0,0,22,7560,6144,3832,0
1776866273880102,26,14,0,0,0,0,230,7567,5888,4856,0
1776866273749030,23,14,0,0,0,0,182,7575,6656,3320,0
1776866273683494,24,17,0,0,0,0,134,7583,6400,3320,0
1776866273683501,22,16,0,0,0,0,86,7591,6144,2808,0
1776866273683497,25,14,0,0,0,0,38,7599,5376,2040,0
1776866273683500,28,14,0,0,0,0,246,7606,5888,2296,0
1776866273749043,25,15,0,0,0,0,255,-1,-1,-1,255
1776866282072295,-1,-1,-16698,29,-2025,12,75,-32513,6399,4096,0
1776861987105000,0,0,-14698,29,-2021,10,74,-32513,6399,4352,0
1776861987105000,0,0,-12698,29,-2022,12,67,32767,5887,4352,0
1776861987105000,0,0,-10698,29,-2024,13,60,32767,6399,4352,0
1776861987105000,0,0,-8698,29,-2020,6,55,-32257,7167,4352,0
1776861987105000,0,0,-6698,29,-2020,11,59,-32513,6911,4352,0
1776861987105000,0,0,-4698,29,-2017,12,67,32511,6655,4096,0
1776861987105000,0,0,-2698,29,-2020,10,64,32767,6911,3840,0
1776861987105000,0,0,-698,29,-2015,10,70,-32513,6655,3840,0
1776861987105000,0,0,1302,30,-2021,3,59,32511,6655,4096,0
1776861987105000,0,0,-1,-1,-1,-1,255,-1,-1,-1,255
1776861989074382,-2021,7,-194,-128,26,15,0,0,0,0,0
1776861989076382,-2019,5,-195,-126,26,15,0,0,0,0,0
1776861989078382,-2022,10,-201,-128,24,16,0,0,0,0,0
1776861989080382,-2020,7,-198,-128,23,16,0,0,0,0,0
1776861989082382,-2019,8,-198,-129,24,16,0,0,0,0,0
1776861989084382,-2021,12,-188,-128,24,16,0,0,0,0,0
1776861989086382,-2025,14,-185,-129,25,16,0,0,0,0,0
1776861989088382,-2022,10,-185,-129,24,15,0,0,0,0,0
1776861989090382,-2024,9,-197,-128,24,15,0,0,0,0,0
1776861989092382,-2027,13,-198,-128,27,16,0,0,0,0,0
1776866282072295,-1,-1,-1,-1,-1,-1,6,7771,5888,3576,0
1776866273617957,26,17,0,0,0,0,214,7778,6400,2552,0
1776866273617960,25,18,0,0,0,0,166,7786,5376,3064,0
1776866273617963,24,16,0,0,0,0,118,7794,5632,2552,0
1776866273617956,24,15,0,0,0,0,70,7802,6144,2040,0
1776866273749033,24,15,0,0,0,0,22,7810,7168,2296,0
1776866273814568,24,16,0,0,0,0,230,7817,7680,3064,0
1776866273880105,23,14,0,0,0,0,182,7825,5120,2552,0
1776866273749035,24,15,0,0,0,0,134,7833,5888,2296,0
1776866273683490,26,16,0,0,0,0,86,7841,6400,2808,0
1776866273749034,26,18,0,0,0,0,255,-1,-1,-1,255
1776866282072295,-1,-1,-22234,30,-2023,11,62,-32257,7167,4352,0
1776861987105000,0,0,-20234,30,-2020,10,70,-32257,6655,4352,0
1776861987105000,0,0,-18234,30,-2024,7,69,32767,6399,4096,0
1776861987105000,0,0,-16234,30,-2025,10,73,32767,6143,3584,0
1776861987105000,0,0,-14234,30,-2023,6,66,32511,6655,3840,0
1776861987105000,0,0,-12234,30,-2028,14,65,32767,6911,3840,0
1776861987105000,0,0,-10234,30,-2022,7,68,-32257,7679,4096,0
1776861987105000,0,0,-8234,30,-2025,10,64,-32513,7679,4352,0
1776861987105000,0,0,-6234,30,-2020,6,70,-32257,6911,4096,0
1776861987105000,0,0,-4234,30,-2019,9,72,-32513,6399,4352,0
1776861987105000,0,0,-1,-1,-1,-1,255,-1,-1,-1,255
1776861989134382,-2019,14,-185,-129,26,17,0,0,0,0,0
1776861989136382,-2019,11,-182,-128,25,18,0,0,0,0,0
1776861989138382,-2021,7,-187,-127,23,17,0,0,0,0,0
1776861989140382,-2018,7,-191,-129,24,17,0,0,0,0,0
1776861989142382,-2020,8,-190,-129,25,17,0,0,0,0,0
1776861989144382,-2018,12,-190,-128,28,16,0,0,0,0,0
1776861989146383,-2020,11,-187,-128,27,16,0,0,0,0,0
1776861989148383,-2021,16,-194,-127,26,15,0,0,0,0,0
1776861989150383,-2020,11,-203,-130,25,15,0,0,0,0,0
1776861989152383,-2017,14,-191,-129,24,15,0,0,0,0,0
1776866282072295,-1,-1,-1,-1,-1,-1,103,8005,6144,3832,0
1776866273683485,23,16,0,0,0,0,55,8013,5120,3832,0
1776866273617949,23,15,0,0,0,0,7,8021,5376,2808,0
1776866273552422,22,15,0,0,0,0,215,8028,6144,2552,0
1776866273683490,24,15,0,0,0,0,167,8036,6656,2296,0
1776866273749029,25,16,0,0,0,0,119,8044,6912,760,0
1776866273749032,25,16,0,0,0,0,71,8052,5376,1528,0
1776866273880104,25,16,0,0,0,0,23,8060,4864,3320,0
1776866273814571,25,16,0,0,0,0,231,8067,5120,3320,0
1776866273749032,24,16,0,0,0,0,183,8075,6144,2040,0
1776866273683501,25,16,0,0,0,0,255,-1,-1,-1,255
1776866282072295,-1,-1,-27769,31,-2021,5,70,-32513,6655,4096,0
1776861987105000,0,0,-25769,31,-2024,12,65,32767,6399,4096,0
1776861987105000,0,0,-23769,31,-2026,5,60,32511,6399,4352,0
1776861987105000,0,0,-21769,31,-2025,8,54,32767,6399,4096,0
1776861987105000,0,0,-19769,31,-2024,11,61,32767,6911,3840,0
1776861987105000,0,0,-17769,31,-2028,15,63,32767,6911,4096,0
1776861987105000,0,0,-15769,31,-2031,17,62,-32513,6655,3840,0
1776861987105000,0,0,-13769,31,-2029,14,65,32767,6911,3584,0
1776861987105000,0,0,-11769,31,-2022,10,63,32255,6655,3328,0
1776861987105000,0,0,-9769,31,-2020,9,59,32767,6399,3584,0
1776861987105000,0,0,-1,-1,-1,-1,255,-1,-1,-1,255
1776861989194383,-2014,9,-190,-129,27,15,0,0,0,0,0
1776861989196383,-2017,15,-194,-131,27,16,0,0,0,0,0
1776861989198383,-2023,18,-198,-132,27,16,0,0,0,0,0
1776861989200383,-2017,15,-187,-131,28,15,0,0,0,0,0
1776861989202383,-2019,11,-184,-131,26,14,0,0,0,0,0
1776861989204383,-2020,10,-191,-130,26,14,0,0,0,0,0
1776861989206383,-2020,10,-194,-129,22,16,0,0,0,0,0
1776861989208383,-2022,10,-185,-130,21,16,0,0,0,0,0
1776861989210383,-2021,4,-192,-132,23,17,0,0,0,0,0
1776861989212383,-2016,5,-198,-132,25,17,0,0,0,0,0
1776866282072295,-1,-1,-1,-1,-1,-1,199,8239,7936,2040,0
1776866273617958,26,16,0,0,0,0,151,8247,8448,2296,0
1776866273683486,25,16,0,0,0,0,103,8255,8192,2552,0
1776866273617952,25,17,0,0,0,0,55,8263,7936,2040,0
1776866273683494,25,17,0,0,0,0,7,8271,7168,1784,0
1776866273749033,25,16,0,0,0,0,215,8278,7680,2552,0
1776866273683499,24,17,0,0,0,0,167,8286,6656,2552,0
1776866273814568,23,18,0,0,0,0,119,8294,5632,3576,0
1776866273814566,21,16,0,0,0,0,71,8302,6656,2552,0
1776866273749033,22,16,0,0,0,0,23,8310,7424,3576,0
1776866273749036,24,16,0,0,0,0,255,-1,-1,-1,255
1776866282072295,-1,-1,32231,32,-2020,12,57,32767,7167,3840,0
1776861987105000,0,0,-31305,32,-2024,12,52,32767,7167,4096,0
1776861987105000,0,0,-29305,32,-2024,13,61,-32513,6655,4352,0
1776861987105000,0,0,-27305,32,-2022,9,72,-32513,6399,4352,0
1776861987105000,0,0,-25305,32,-2020,2,65,32767,6655,4352,0
1776861987105000,0,0,-23305,32,-2021,10,53,32767,6655,4352,0
1776861987105000,0,0,-21305,32,-2025,11,62,32511,6143,3840,0
1776861987105000,0,0,-19305,32,-2018,5,67,32767,6399,4096,0
1776861987105000,0,0,-17305,32,-2020,11,64,32255,6911,4096,0
1776861987105000,0,0,-15305,32,-2022,10,63,32511,6911,4352,0
1776861987105000,0,0,-1,-1,-1,-1,255,-1,-1,-1,255
1776861989254383,-2021,10,-189,-129,23,16,0,0,0,0,0
1776861989256383,-2024,10,-191,-130,23,16,0,0,0,0,0
1776861989258383,-2026,14,-187,-129,24,18,0,0,0,0,0
1776861989260383,-2030,12,-188,-128,25,17,0,0,0,0,0
1776861989262383,-2028,14,-194,-129,26,16,0,0,0,0,0
1776861989264383,-2025,10,-197,-130,27,17,0,0,0,0,0
1776861989266383,-2030,10,-186,-130,29,17,0,0,0,0,0
1776861989268383,-2029,9,-187,-130,29,16,0,0,0,0,0
1776861989270383,-2024,10,-185,-129,28,15,0,0,0,0,0
1776861989272383,-2030,15,-187,-129,28,16,0,0,0,0,0
1776866282072295,-1,-1,-1,-1,-1,-1,39,8474,5632,4088,0
1776866273552431,27,18,0,0,0,0,247,8481,7168,4600,0
1776866273749026,25,17,0,0,0,0,199,8489,7424,3576,0
1776866273552417,25,17,0,0,0,0,151,8497,7424,2808,0
1776866273552428,27,16,0,0,0,0,103,8505,6400,3320,0
1776866273683496,28,15,0,0,0,0,55,8513,6656,3064,0
1776866273683500,27,16,0,0,0,0,7,8521,6144,3576,0
1776866273683495,28,17,0,0,0,0,215,8528,6144,4344,0
1776866273617955,26,17,0,0,0,0,167,8536,6144,2296,0
1776866273617965,25,17,0,0,0,0,119,8544,7424,3576,0
1776866273749026,24,15,0,0,0,0,255,-1,-1,-1,255
1776866282072295,-1,-1,26695,33,-2017,10,59,-32513,6655,3840,0
1776861987105000,0,0,28695,33,-2017,10,61,32767,6399,4096,0
1776861987105000,0,0,30695,33,-2014,14,54,32767,6143,4096,0
1776861987105000,0,0,32695,33,-2018,9,58,32767,6143,4096,0
1776861987105000,0,0,-30841,33,-2018,5,65,-32513,6143,3584,0
1776861987105000,0,0,-28841,33,-2019,8,67,-31745,5887,4096,0
1776861987105000,0,0,-26841,33,-2024,14,62,-32257,5887,4352,0
1776861987105000,0,0,-24841,33,-2026,13,66,-32513,6143,4096,0
1776861987105000,0,0,-22841,33,-2021,10,73,32511,6143,4096,0
1776861987105000,0,0,-20841,33,-2018,10,72,32767,5887,3840,0
1776861987105000,0,0,-1,-1,-1,-1,255,-1,-1,-1,255
1776861989314383,-2017,4,-190,-128,25,16,0,0,0,0,0
1776861989316383,-2020,4,-189,-129,26,17,0,0,0,0,0
1776861989318383,-2020,3,-190,-129,25,16,0,0,0,0,0
1776861989320383,-2023,9,-191,-130,25,17,0,0,0,0,0
1776861989322383,-2026,7,-195,-130,27,17,0,0,0,0,0
1776861989324383,-2022,8,-201,-131,28,17,0,0,0,0,0
1776861989326383,-2026,9,-210,-131,27,17,0,0,0,0,0
1776861989328383,-2025,6,-201,-130,26,15,0,0,0,0,0
1776861989330383,-2022,6,-192,-127,25,14,0,0,0,0,0
1776861989332383,-2020,12,-181,-128,25,15,0,0,0,0,0
1776866282072295,-1,-1,-1,-1,-1,-1,135,8708,5888,2296,0
1776866273749037,27,15,0,0,0,0,220,8912,6144,1016,0
1776866273814572,24,16,0,0,0,0,172,8920,4608,760,0
1776866273683502,26,16,0,0,0,0,124,8928,5888,1784,0
1776866273683496,23,16,0,0,0,0,76,8936,6400,3064,0
1776866273749032,23,16,0,0,0,0,28,8944,6144,3064,0
1776866273880096,24,16,0,0,0,0,236,8951,6656,2552,0
1776866273749030,25,16,0,0,0,0,188,8959,6144,3320,0
1776866273683497,24,14,0,0,0,0,140,8967,6912,2552,0
1776866273749034,23,16,0,0,0,0,92,8975,7168,2296,0
1776866273683497,24,16,0,0,0,0,255,-1,-1,-1,255
1776866282072295,-1,-1,5932,35,-2029,11,77,-32257,6143,4096,0
1776861987105000,0,0,7932,35,-2026,9,58,-32001,6655,3840,0
1776861987105000,0,0,9932,35,-2024,9,67,-32257,7167,4352,0
1776861987105000,0,0,11932,35,-2021,6,74,-32513,6911,4096,0
1776861987105000,0,0,13932,35,-2023,7,65,-32513,6911,3584,0
1776861987105000,0,0,15932,35,-2025,8,68,-32513,6911,3840,0
1776861987105000,0,0,17932,35,-2021,9,76,-32257,6655,3584,0
1776861987105000,0,0,19932,35,-2019,10,73,-32513,6655,3840,0
1776861987105000,0,0,21932,35,-2019,13,62,32767,6911,4096,0
1776861987105000,0,0,23932,35,-2021,10,62,32767,6655,4352,0
1776861987105000,0,0,-1,-1,-1,-1,255,-1,-1,-1,255
1776861989424692,-2019,7,-190,-129,23,16,0,0,0,0,0
1776861989426692,-2022,9,-193,-130,24,18,0,0,0,0,0
1776861989428692,-2021,10,-189,-130,25,18,0,0,0,0,0
1776861989430692,-2019,6,-186,-127,26,17,0,0,0,0,0
1776861989432692,-2019,11,-186,-127,26,15,0,0,0,0,0
1776861989434692,-2024,7,-194,-128,26,14,0,0,0,0,0
1776861989436692,-2022,9,-193,-128,24,12,0,0,0,0,0
1776861989438692,-2025,3,-189,-127,25,11,0,0,0,0,0
1776861989440692,-2024,7,-187,-128,26,11,0,0,0,0,0
1776861989442692,-2024,9,-191,-127,26,13,0,0,0,0,0
1776866282072295,-1,-1,-1,-1,-1,-1,108,9139,6912,1784,0
1776866273749030,25,16,0,0,0,0,60,9147,6144,2296,0
1776866273683487,23,15,0,0,0,0,12,9155,6656,2552,0
1776866273814571,21,16,0,0,0,0,220,9162,6400,2552,0
1776866273749024,22,17,0,0,0,0,172,9170,7936,2808,0
1776866273749028,23,17,0,0,0,0,124,9178,5632,4088,0
1776866273683497,25,16,0,0,0,0,76,9186,5632,3832,0
1776866273814571,26,15,0,0,0,0,28,9194,5888,3320,0
1776866273945633,26,15,0,0,0,0,236,9201,5888,2808,0
1776866273880107,26,15,0,0,0,0,188,9209,5632,2808,0
1776866273749030,26,15,0,0,0,0,255,-1,-1,-1,255
1776866282072295,-1,-1,396,36,-2030,10,66,32767,6399,4096,0
1776861987105000,0,0,2396,36,-2024,10,66,32767,6399,4096,0
1776861987105000,0,0,4396,36,-2025,6,61,32767,6655,4096,0
1776861987105000,0,0,6396,36,-2025,2,57,-32513,6143,3584,0
1776861987105000,0,0,8396,36,-2024,6,65,32767,6399,3840,0
1776861987105000,0,0,10396,36,-2021,9,71,32767,7423,4096,0
1776861987105000,0,0,12396,36,-2024,12,66,-32513,7167,3840,0
1776861987105000,0,0,14396,36,-2022,10,68,32767,6655,4096,0
1776861987105000,0,0,16396,36,-2024,10,64,32767,6399,4096,0
1776861987105000,0,0,18396,36,-2022,10,61,-32513,6655,3840,0
1776861987105000,0,0,-1,-1,-1,-1,255,-1,-1,-1,255
1776861989484692,-2023,12,-188,-128,24,15,0,0,0,0,0
1776861989486692,-2022,11,-190,-128,25,15,0,0,0,0,0
1776861989488692,-2018,11,-185,-129,25,15,0,0,0,0,0
1776861989490692,-2025,10,-192,-129,25,15,0,0,0,0,0
1776861989492692,-2026,10,-196,-129,24,14,0,0,0,0,0
1776861989494692,-2021,9,-195,-128,24,14,0,0,0,0,0
1776861989496692,-2018,12,-197,-129,24,15,0,0,0,0,0
1776861989498692,-2018,11,-192,-129,23,17,0,0,0,0,0
1776861989500692,-2020,12,-200,-128,23,15,0,0,0,0,0
1776861989502692,-2019,10,-201,-128,24,16,0,0,0,0,0
1776866282072295,-1,-1,-1,-1,-1,-1,204,9373,6144,3064,0
1776866273617952,24,16,0,0,0,0,156,9381,7936,2296,0
1776866273552427,24,16,0,0,0,0,108,9389,6912,3832,0
1776866273552421,24,15,0,0,0,0,60,9397,6912,4856,0
1776866273486872,25,14,0,0,0,0,12,9405,6656,3832,0
1776866273617957,25,14,0,0,0,0,220,9412,7168,3576,0
1776866273814571,25,17,0,0,0,0,172,9420,6912,2808,0
1776866273749030,24,17,0,0,0,0,124,9428,6912,2808,0
1776866273683502,22,16,0,0,0,0,76,9436,6656,3576,0
1776866273683488,23,14,0,0,0,0,28,9444,5888,4088,0
1776866273749034,23,15,0,0,0,0,255,-1,-1,-1,255
1776866282072295,-1,-1,-5140,36,-2024,9,73,-32513,6143,3584,0
1776861987105000,0,0,-3140,36,-2028,8,67,-32513,6911,3840,0
1776861987105000,0,0,-1140,36,-2026,7,61,32767,7167,4096,0
1776861987105000,0,0,860,37,-2027,10,75,32511,6143,4096,0
1776861987105000,0,0,2860,37,-2029,10,71,32767,5887,4096,0
1776861987105000,0,0,4860,37,-2024,8,69,-32513,6655,4096,0
1776861987105000,0,0,6860,37,-2026,12,72,32511,6911,4352,0
1776861987105000,0,0,8860,37,-2024,17,66,32511,6399,4096,0
1776861987105000,0,0,10860,37,-2025,15,55,32511,5887,3840,0
1776861987105000,0,0,12860,37,-2020,9,73,32511,6655,3584,0
1776861987105000,0,0,-1,-1,-1,-1,255,-1,-1,-1,255
1776861989544692,-2019,9,-173,-129,26,16,0,0,0,0,0
1776861989546692,-2018,5,-184,-129,25,15,0,0,0,0,0
1776861989548692,-2025,6,-191,-129,26,15,0,0,0,0,0
1776861989550692,-2027,11,-199,-129,27,15,0,0,0,0,0
1776861989552692,-2025,11,-189,-130,26,14,0,0,0,0,0
1776861989554692,-2021,15,-186,-128,24,14,0,0,0,0,0
1776861989556692,-2020,10,-189,-127,24,15,0,0,0,0,0
1776861989558692,-2019,6,-200,-126,26,16,0,0,0,0,0
1776861989560692,-2019,2,-186,-129,25,16,0,0,0,0,0
1776861989562692,-2022,2,-181,-128,26,16,0,0,0,0,0
1776866282072295,-1,-1,-1,-1,-1,-1,44,9608,6144,1016,0
1776866273749046,25,15,0,0,0,0,252,9615,6912,2040,0
1776866273617967,25,16,0,0,0,0,204,9623,6144,2808,0
1776866273683494,25,15,0,0,0,0,156,9631,6400,2296,0
1776866273749033,24,17,0,0,0,0,108,9639,7168,3832,0
1776866273749030,24,16,0,0,0,0,60,9647,7936,5112,0
1776866273683488,27,15,0,0,0,0,12,9655,6912,3576,0
1776866273683480,25,15,0,0,0,0,220,9662,6400,2296,0
1776866273683492,23,15,0,0,0,0,172,9670,6144,2808,0
1776866273814574,23,15,0,0,0,0,124,9678,6144,3064,0
1776866273749032,24,14,0,0,0,0,255,-1,-1,-1,255
1776866282072295,-1,-1,-10676,37,-2023,11,59,32767,6655,3584,0
1776861987105000,0,0,-8676,37,-2019,14,58,-32513,6655,4096,0
1776861987105000,0,0,-6676,37,-2022,13,58,-32257,6399,3840,0
1776861987105000,0,0,-4676,37,-2018,15,56,32767,6143,3840,0
1776861987105000,0,0,-2676,37,-2018,7,66,-32513,6399,4352,0
1776861987105000,0,0,-676,37,-2022,6,68,-32513,6655,4096,0
1776861987105000,0,0,1324,38,-2016,11,68,-32513,6655,3840,0
1776861987105000,0,0,3324,38,-2023,9,70,-32513,6911,3584,0
1776861987105000,0,0,5324,38,-2026,8,68,32767,6655,3840,0
1776861987105000,0,0,7324,38,-2028,10,69,32767,6143,4096,0
1776861987105000,0,0,-1,-1,-1,-1,255,-1,-1,-1,255
1776861989604692,-2025,8,-175,-126,22,16,0,0,0,0,0
1776861989606692,-2022,5,-179,-127,23,15,0,0,0,0,0
1776861989608692,-2028,6,-184,-127,24,15,0,0,0,0,0
1776861989610692,-2028,5,-198,-128,23,17,0,0,0,0,0
1776861989612692,-2026,4,-200,-128,26,16,0,0,0,0,0
1776861989614692,-2022,5,-196,-128,26,16,0,0,0,0,0
1776861989616692,-2024,7,-189,-128,26,15,0,0,0,0,0
1776861989618692,-2021,13,-200,-129,25,15,0,0,0,0,0
1776861989620692,-2025,9,-195,-128,24,15,0,0,0,0,0
1776861989622692,-2024,11,-205,-128,24,17,0,0,0,0,0
1776866282072295,-1,-1,-1,-1,-1,-1,140,9842,6656,4600,0
1776866273683480,25,16,0,0,0,0,92,9850,6656,3064,0
1776866273683491,24,16,0,0,0,0,44,9858,6400,2808,0
1776866273814568,24,16,0,0,0,0,252,9865,5632,2552,0
1776866273880108,24,15,0,0,0,0,204,9873,6400,3064,0
1776866273814575,26,15,0,0,0,0,156,9881,5376,2552,0
1776866273814569,25,15,0,0,0,0,108,9889,7424,1784,0
1776866273683500,27,18,0,0,0,0,60,9897,7424,3576,0
1776866273683494,27,17,0,0,0,0,12,9905,7168,2808,0
1776866273683501,25,17,0,0,0,0,220,9912,7424,2552,0
1776866273749036,25,18,0,0,0,0,255,-1,-1,-1,255
1776866282072295,-1,-1,-16212,38,-2022,9,68,-32513,6911,4352,0
1776861987105000,0,0,-14212,38,-2018,9,67,-32257,6655,4096,0
1776861987105000,0,0,-12212,38,-2020,9,67,32767,6655,3840,0
1776861987105000,0,0,-10212,38,-2020,5,60,-32513,6911,4096,0
1776861987105000,0,0,-8212,38,-2022,8,61,-32001,6911,3840,0
1776861987105000,0,0,-6212,38,-2021,10,54,-32513,6399,3840,0
1776861987105000,0,0,-4212,38,-2023,15,57,32767,6143,4096,0
1776861987105000,0,0,-2212,38,-2019,14,54,-32513,6655,4352,0
1776861987105000,0,0,-212,38,-2018,10,63,-32513,6143,4096,0
1776861987105000,0,0,1788,39,-2017,9,63,32767,5887,3840,0
1776861987105000,0,0,-1,-1,-1,-1,255,-1,-1,-1,255
1776861989664692,-2015,7,-192,-128,21,14,0,0,0,0,0
1776861989666692,-2020,10,-191,-129,24,16,0,0,0,0,0
1776861989668692,-2023,11,-198,-128,27,17,0,0,0,0,0
1776861989670692,-2022,13,-192,-129,25,16,0,0,0,0,0
1776861989672692,-2020,10,-198,-129,25,14,0,0,0,0,0
1776861989674692,-2025,5,-196,-128,23,15,0,0,0,0,0
1776861989676692,-2023,9,-193,-127,23,14,0,0,0,0,0
1776861989678692,-2028,13,-188,-129,24,14,0,0,0,0,0
1776861989680692,-2025,10,-193,-128,25,15,0,0,0,0,0
1776861989682692,-2023,10,-197,-129,27,16,0,0,0,0,0
1776866282072295,-1,-1,-1,-1,-1,-1,236,10076,6912,1528,0
1776866273617963,29,16,0,0,0,0,188,10084,7168,2552,0
1776866273749029,26,16,0,0,0,0,140,10092,5888,4856,0
1776866273880101,24,18,0,0,0,0,92,10100,6656,3832,0
1776866273814561,25,19,0,0,0,0,44,10108,6144,2040,0
1776866273814557,23,18,0,0,0,0,252,10115,5888,3064,0
1776866273814557,23,17,0,0,0,0,204,10123,6400,3832,0
1776866273814567,23,16,0,0,0,0,156,10131,4864,2552,0
1776866273749039,24,14,0,0,0,0,108,10139,5632,2040,0
1776866273749032,27,14,0,0,0,0,60,10147,7424,2552,0
1776866273749029,27,16,0,0,0,0,255,-1,-1,-1,255
1776866282072295,-1,-1,-21748,39,-2022,7,65,-32513,7167,4352,0
1776861987105000,0,0,30455,40,-2021,8,72,-32513,7167,4096,0
1776861987105000,0,0,32455,40,-2026,11,69,-32513,6911,3840,0
1776861987105000,0,0,-31081,40,-2027,14,66,-32257,6911,4352,0
1776861987105000,0,0,-29081,40,-2026,12,65,-32513,6911,4352,0
1776861987105000,0,0,-27081,40,-2024,5,61,-32513,6911,4352,0
1776861987105000,0,0,-25081,40,-2025,8,61,-32513,6655,4096,0
1776861987105000,0,0,-23081,40,-2026,13,56,32255,6399,3840,0
1776861987105000,0,0,-21081,40,-2021,10,59,32511,6655,3584,0
1776861987105000,0,0,-19081,40,-2017,11,75,32767,6655,3584,0
1776861987105000,0,0,-1,-1,-1,-1,255,-1,-1,-1,255
1776861989774895,-2019,13,-186,-128,24,14,0,0,0,0,0
1776861989776895,-2022,15,-192,-127,24,15,0,0,0,0,0
1776861989778895,-2027,14,-197,-127,25,17,0,0,0,0,0
1776861989780895,-2018,16,-196,-129,26,16,0,0,0,0,0
1776861989782895,-2021,12,-186,-130,28,14,0,0,0,0,0
1776861989784895,-2020,7,-184,-130,26,16,0,0,0,0,0
1776861989786895,-2026,11,-186,-129,24,16,0,0,0,0,0
1776861989788895,-2023,8,-183,-128,26,14,0,0,0,0,0
1776861989790895,-2030,9,-189,-128,26,16,0,0,0,0,0
1776861989792895,-2023,11,-193,-130,26,17,0,0,0,0,0
1776866282072295,-1,-1,-1,-1,-1,-1,103,10507,6912,2296,0
1776866273749034,24,16,0,0,0,0,55,10515,6400,1528,0
1776866273683498,25,16,0,0,0,0,7,10523,5888,2808,0
1776866273683493,24,16,0,0,0,0,215,10530,6656,3064,0
1776866273683504,23,18,0,0,0,0,167,10538,7424,2296,0
1776866273749046,24,18,0,0,0,0,119,10546,7424,1784,0
1776866273683496,24,16,0,0,0,0,71,10554,6400,2296,0
1776866273683495,23,15,0,0,0,0,23,10562,7168,2296,0
1776866273683501,24,16,0,0,0,0,231,10569,6656,2808,0
1776866273814578,25,18,0,0,0,0,183,10577,5120,2808,0
1776866273814571,27,18,0,0,0,0,255,-1,-1,-1,255
1776866282072295,-1,-1,22919,41,-2027,11,66,32511,7167,4864,0
1776861987105000,0,0,24920,41,-2028,12,50,32767,6655,4864,0
1776861987105000,0,0,26920,41,-2025,10,66,-32513,6655,4352,0
1776861987105000,0,0,28920,41,-2025,8,69,32511,6399,3840,0
1776861987105000,0,0,30920,41,-2021,11,74,-32513,6655,3840,0
1776861987105000,0,0,-32616,41,-2025,7,65,-32257,7167,3840,0
1776861987105000,0,0,-30616,41,-2028,9,61,32767,7423,3840,0
1776861987105000,0,0,-28616,41,-2022,15,64,32255,7167,4096,0
1776861987105000,0,0,-26616,41,-2025,12,61,-32513,6655,3840,0
1776861987105000,0,0,-24616,41,-2023,11,58,-32513,6655,4352,0
1776861987105000,0,0,-1,-1,-1,-1,255,-1,-1,-1,255
1776861989834896,-2023,18,-192,-129,23,17,0,0,0,0,0
1776861989836896,-2021,9,-189,-128,23,15,0,0,0,0,0
1776861989838896,-2020,8,-189,-128,24,16,0,0,0,0,0
1776861989840896,-2022,8,-196,-129,26,15,0,0,0,0,0
1776861989842896,-2024,5,-189,-129,24,17,0,0,0,0,0
1776861989844896,-2022,10,-190,-131,24,17,0,0,0,0,0
1776861989846896,-2023,8,-186,-130,23,17,0,0,0,0,0
1776861989848896,-2028,13,-191,-129,24,17,0,0,0,0,0
1776861989850896,-2026,12,-195,-130,25,16,0,0,0,0,0
1776861989852896,-2019,13,-194,-128,26,17,0,0,0,0,0
1776866282072295,-1,-1,-1,-1,-1,-1,200,10741,8704,1784,0
1776866273814576,27,17,0,0,0,0,152,10749,7168,2552,0
1776866273814580,26,14,0,0,0,0,104,10757,5888,1784,0
1776866273814569,27,16,0,0,0,0,56,10765,6144,2296,0
1776866273749030,27,16,0,0,0,0,8,10773,5632,3320,0
1776866273683492,27,15,0,0,0,0,216,10780,7936,2808,0
1776866273749037,26,15,0,0,0,0,168,10788,6144,4600,0
1776866273683506,24,16,0,0,0,0,120,10796,6656,3320,0
1776866273749040,24,15,0,0,0,0,72,10804,6912,3576,0
1776866273683506,24,17,0,0,0,0,24,10812,6912,3320,0
1776866273617958,26,17,0,0,0,0,255,-1,-1,-1,255
1776866282072295,-1,-1,17384,42,-2018,10,67,32255,6911,3840,0
1776861987105000,0,0,19384,42,-2017,7,62,32511,7167,4096,0
1776861987105000,0,0,21384,42,-2018,8,69,32511,7679,4096,0
1776861987105000,0,0,23384,42,-2017,14,63,-32513,7423,4096,0
1776861987105000,0,0,25384,42,-2019,15,70,32767,7167,4352,0
1776861987105000,0,0,27384,42,-2021,14,72,32767,7167,4352,0
1776861987105000,0,0,29385,42,-2018,11,64,-32513,6655,4096,0
1776861987105000,0,0,31384,42,-2018,5,65,32511,6143,4096,0
1776861987105000,0,0,-32152,42,-2019,4,70,32511,6143,4352,0
1776861987105000,0,0,-30151,42,-2020,10,57,32511,6399,4096,0
1776861987105000,0,0,-1,-1,-1,-1,255,-1,-1,-1,255
1776861989894897,-2019,11,-197,-130,24,17,0,0,0,0,0
1776861989896897,-2020,9,-188,-131,26,15,0,0,0,0,0
1776861989898897,-2023,14,-187,-131,25,14,0,0,0,0,0
1776861989900897,-2023,10,-191,-129,24,15,0,0,0,0,0
1776861989902897,-2022,9,-192,-129,23,15,0,0,0,0,0
1776861989904897,-2018,7,-182,-130,25,15,0,0,0,0,0
1776861989906897,-2018,8,-186,-129,26,17,0,0,0,0,0
1776861989908897,-2021,1,-187,-127,26,18,0,0,0,0,0
1776861989910895,-2018,9,-190,-128,26,16,0,0,0,0,0
1776861989912895,-2021,6,-193,-128,24,15,0,0,0,0,0
1776866282072295,-1,-1,-1,-1,-1,-1,39,10976,6912,3064,0
1776866273814568,24,16,0,0,0,0,248,10983,8192,1784,0
1776866273749034,26,18,0,0,0,0,200,10991,5888,3832,0
1776866273814574,25,17,0,0,0,0,152,10999,5120,3320,0
1776866273814562,23,16,0,0,0,0,104,11007,5632,3064,0
1776866273749026,25,14,0,0,0,0,56,11015,6400,3832,0
1776866273617955,27,14,0,0,0,0,9,11023,5632,2808,0
1776866273683496,27,15,0,0,0,0,217,11030,6656,2552,0
1776866273749032,29,14,0,0,0,0,169,11038,7168,2552,0
1776866273683499,27,15,0,0,0,0,121,11046,6400,2296,0
1776866273683498,28,15,0,0,0,0,255,-1,-1,-1,255
1776866282072295,-1,-1,11849,43,-2023,10,65,32767,7423,3840,0
1776861987105000,0,0,13849,43,-2025,12,51,32767,7167,4096,0
1776861987105000,0,0,15849,43,-2020,13,58,32767,6399,4608,0
1776861987105000,0,0,17849,43,-2024,13,61,32767,6399,4352,0
1776861987105000,0,0,19849,43,-2024,12,61,32767,6399,4096,0
1776861987105000,0,0,21849,43,-2018,10,63,-32513,6399,3840,0
1776861987105000,0,0,23849,43,-2019,7,67,-32513,6655,4096,0
1776861987105000,0,0,25849,43,-2021,11,75,32511,6911,4608,0
1776861987105000,0,0,27849,43,-2023,10,63,31999,6911,4352,0
1776861987105000,0,0,29849,43,-2018,8,78,32255,6655,4352,0
1776861987105000,0,0,-1,-1,-1,-1,255,-1,-1,-1,255
1776861989954897,-2020,10,-188,-130,25,16,0,0,0,0,0
1776861989956897,-2021,6,-194,-130,24,15,0,0,0,0,0
1776861989958897,-2018,4,-187,-130,23,15,0,0,0,0,0
1776861989960897,-2018,9,-189,-128,22,16,0,0,0,0,0
1776861989962897,-2017,5,-195,-127,23,16,0,0,0,0,0
1776861989964897,-2022,8,-178,-129,23,16,0,0,0,0,0
1776861989966897,-2021,9,-187,-129,23,16,0,0,0,0,0
1776861989968897,-2019,5,-199,-130,24,15,0,0,0,0,0
1776861989970897,-2023,7,-193,-128,25,16,0,0,0,0,0
1776861989972897,-2026,7,-199,-128,26,15,0,0,0,0,0
1776866282072295,-1,-1,-1,-1,-1,-1,137,11210,5632,2552,0
1776866273617957,25,15,0,0,0,0,90,11218,5376,2808,0
1776866273683492,23,15,0,0,0,0,39,11226,6400,3576,0
1776866273617961,25,16,0,0,0,0,247,11233,7168,2808,0
1776866273617970,23,16,0,0,0,0,199,11241,7680,1016,0
1776866273617973,22,16,0,0,0,0,151,11249,7424,2040,0
1776866273814572,22,16,0,0,0,0,103,11257,6400,2296,0
1776866273749035,22,16,0,0,0,0,55,11265,4864,1528,0
1776866273683491,22,17,0,0,0,0,7,11273,5376,1784,0
1776866273683494,23,17,0,0,0,0,215,11280,5888,3064,0
1776866273749029,23,17,0,0,0,0,255,-1,-1,-1,255
1776866282072295,-1,-1,6311,44,-2020,8,61,32767,6143,4096,0
1776861987105000,0,0,8311,44,-2023,7,65,32767,6655,3840,0
1776861987105000,0,0,10311,44,-2015,7,65,-32513,7167,4096,0
1776861987105000,0,0,12311,44,-2021,8,60,-32513,6655,4096,0
1776861987105000,0,0,14311,44,-2025,14,63,32767,6399,4096,0
1776861987105000,0,0,16311,44,-2020,12,67,32767,6655,4352,0
1776861987105000,0,0,18311,44,-2022,10,66,32767,6399,4352,0
1776861987105000,0,0,20311,44,-2023,9,58,-32257,6655,3840,0
1776861987105000,0,0,22311,44,-2016,9,58,-32001,6143,3840,0
1776861987105000,0,0,24311,44,-2022,12,52,32767,5887,3840,0
1776861987105000,0,0,-1,-1,-1,-1,255,-1,-1,-1,255
1776861990014895,-2019,11,-185,-129,22,16,0,0,0,0,0
1776861990016895,-2022,8,-188,-130,26,16,0,0,0,0,0
1776861990018895,-2023,14,-192,-131,27,16,0,0,0,0,0
1776861990020895,-2022,8,-191,-130,26,15,0,0,0,0,0
1776861990022895,-2016,8,-191,-130,26,16,0,0,0,0,0
1776861990024895,-2018,9,-196,-129,26,15,0,0,0,0,0
1776861990026895,-2020,14,-197,-130,27,15,0,0,0,0,0
1776861990028895,-2024,19,-196,-130,25,15,0,0,0,0,0
1776861990030895,-2020,15,-187,-130,26,15,0,0,0,0,0
1776861990032895,-2016,6,-193,-128,26,14,0,0,0,0,0
1776866282072295,-1,-1,-1,-1,-1,-1,231,11444,7424,2296,0
1776866273749033,25,14,0,0,0,0,183,11452,7424,1784,0
1776866273814575,24,15,0,0,0,0,135,11460,7680,3064,0
1776866273683507,26,15,0,0,0,0,87,11468,5888,3832,0
1776866273683495,25,17,0,0,0,0,39,11476,5888,2296,0
1776866273749030,23,17,0,0,0,0,247,11483,5632,2296,0
1776866273749043,24,16,0,0,0,0,199,11491,5376,4088,0
1776866273683492,22,17,0,0,0,0,151,11499,5888,3320,0
1776866273749023,24,16,0,0,0,0,103,11507,5888,2552,0
1776866273814567,26,15,0,0,0,0,55,11515,6400,3064,0
1776866273749036,25,14,0,0,0,0,255,-1,-1,-1,255
1776866282072295,-1,-1,775,45,-2023,7,58,-32513,6911,3584,0
1776861987105000,0,0,2775,45,-2022,10,68,32767,6655,3840,0
1776861987105000,0,0,4775,45,-2022,13,73,32767,6399,3840,0
1776861987105000,0,0,6775,45,-2021,12,54,32511,6143,4352,0
1776861987105000,0,0,8775,45,-2023,12,66,32511,6399,4352,0
1776861987105000,0,0,10775,45,-2022,10,66,32511,6399,4608,0
1776861987105000,0,0,12775,45,-2025,8,73,-32257,6399,4096,0
1776861987105000,0,0,14775,45,-2020,5,69,-32513,6143,3584,0
1776861987105000,0,0,16775,45,-2024,10,67,32767,6399,3840,0
1776861987105000,0,0,18775,45,-2023,10,68,32255,6399,3840,0
1776861987105000,0,0,-1,-1,-1,-1,255,-1,-1,-1,255
1776861990074895,-2024,7,-196,-131,25,17,0,0,0,0,0
1776861990124554,-2023,11,-191,-129,26,15,0,0,0,0,0
1776861990126554,-2023,10,-182,-130,28,17,0,0,0,0,0
1776861990128554,-2020,6,-188,-129,28,17,0,0,0,0,0
1776861990130554,-2021,9,-186,-128,25,17,0,0,0,0,0
1776861990132554,-2024,14,-197,-129,25,15,0,0,0,0,0
1776861990134554,-2019,15,-190,-131,25,16,0,0,0,0,0
1776861990136554,-2019,9,-195,-131,24,17,0,0,0,0,0
1776861990138554,-2019,11,-194,-130,24,15,0,0,0,0,0
1776861990140554,-2020,9,-199,-130,23,15,0,0,0,0,0
1776866282072295,-1,-1,-1,-1,-1,-1,114,11865,6912,3064,0
1776866273749030,25,14,0,0,0,0,66,11873,7168,2808,0
1776866273814570,24,16,0,0,0,0,18,11881,7168,2552,0
1776866273683490,25,18,0,0,0,0,226,11888,7168,3064,0
1776866273683499,25,16,0,0,0,0,178,11896,6400,3832,0
1776866273814568,24,16,0,0,0,0,130,11904,7936,3320,0
1776866273880103,24,15,0,0,0,0,82,11912,7680,1784,0
1776866273749028,25,14,0,0,0,0,34,11920,6912,1272,0
1776866273683500,25,15,0,0,0,0,242,11927,6912,1784,0
1776866273683499,24,16,0,0,0,0,194,11935,5632,2040,0
1776866273683489,26,18,0,0,0,0,255,-1,-1,-1,255
1776866282072295,-1,-1,-22638,46,-2022,11,62,32767,6655,4352,0
1776861987105000,0,0,-20638,46,-2022,12,65,32767,6399,4352,0
1776861987105000,0,0,-18638,46,-2021,11,57,32511,6399,4352,0
1776861987105000,0,0,-16638,46,-2026,9,64,32511,6399,4096,0
1776861987105000,0,0,-14638,46,-2022,14,55,32255,6655,4096,0
1776861987105000,0,0,-12638,46,-2025,8,60,32767,6655,4096,0
1776861987105000,0,0,-10638,46,-2028,8,61,-32257,6399,3840,0
1776861987105000,0,0,-8638,46,-2027,9,66,-32513,6399,4096,0
1776861987105000,0,0,-6638,46,-2025,6,59,-32257,6399,4352,0
1776861987105000,0,0,-4638,46,-2017,2,62,32767,6399,4096,0
1776861987105000,0,0,-1,-1,-1,-1,255,-1,-1,-1,255
1776861990182554,-2019,7,-187,-130,25,15,0,0,0,0,0
1776861990184554,-2023,16,-192,-128,28,14,0,0,0,0,0
1776861990186554,-2023,18,-191,-128,27,14,0,0,0,0,0
1776861990188554,-2021,9,-197,-128,26,17,0,0,0,0,0
1776861990190554,-2024,4,-191,-129,26,17,0,0,0,0,0
1776861990192554,-2023,5,-193,-129,24,16,0,0,0,0,0
1776861990194554,-2020,10,-188,-129,25,16,0,0,0,0,0
1776861990196554,-2022,13,-185,-130,25,15,0,0,0,0,0
1776861990198554,-2024,12,-196,-128,23,16,0,0,0,0,0
1776861990200554,-2022,18,-191,-129,25,16,0,0,0,0,0
1776866282072295,-1,-1,-1,-1,-1,-1,210,12099,6400,2296,0
1776866273749031,23,15,0,0,0,0,162,12107,6400,2296,0
1776866273617962,22,15,0,0,0,0,114,12115,5120,2552,0
1776866273617962,22,16,0,0,0,0,66,12123,5376,1784,0
1776866273617963,23,14,0,0,0,0,18,12131,6144,2808,0
1776866273749036,24,13,0,0,0,0,226,12138,7424,3320,0
1776866273749036,26,15,0,0,0,0,178,12146,6400,1528,0
1776866273814568,26,16,0,0,0,0,130,12154,6400,1784,0
1776866273814565,25,11,0,0,0,0,82,12162,7936,2296,0
1776866273683491,24,12,0,0,0,0,34,12170,6912,4088,0
1776866273683490,26,16,0,0,0,0,255,-1,-1,-1,255
1776866282072295,-1,-1,-28174,47,-2022,12,61,-32513,7167,4352,0
1776861987105000,0,0,-26174,47,-2023,9,61,-32257,6143,4352,0
1776861987105000,0,0,-24174,47,-2025,9,60,-32513,6143,4096,0
1776861987105000,0,0,-22174,47,-2023,7,57,32511,6655,3584,0
1776861987105000,0,0,-20174,47,-2026,9,61,32511,7167,3584,0
1776861987105000,0,0,-18174,47,-2025,11,68,32511,7167,4096,0
1776861987105000,0,0,-16174,47,-2021,13,60,32511,7423,4864,0
1776861987105000,0,0,-14174,47,-2025,15,59,32767,7167,4352,0
1776861987105000,0,0,-12174,47,-2023,10,64,32767,6655,3840,0
1776861987105000,0,0,-10174,47,-2016,9,61,32767,6911,3840,0
1776861987105000,0,0,-1,-1,-1,-1,255,-1,-1,-1,255
1776861990242554,-2018,7,-191,-130,24,14,0,0,0,0,0
1776861990244554,-2023,10,-185,-128,24,14,0,0,0,0,0
1776861990246554,-2023,6,-192,-128,24,14,0,0,0,0,0
1776861990248554,-2023,11,-198,-129,22,16,0,0,0,0,0
1776861990250554,-2020,11,-191,-130,22,16,0,0,0,0,0
1776861990252554,-2018,12,-194,-129,23,14,0,0,0,0,0
1776861990254554,-2020,11,-190,-129,24,16,0,0,0,0,0
1776861990256554,-2022,12,-200,-129,22,18,0,0,0,0,0
1776861990258554,-2020,9,-199,-128,22,17,0,0,0,0,0
1776861990260554,-2022,8,-198,-129,24,16,0,0,0,0,0
1776866282072295,-1,-1,-1,-1,-1,-1,50,12334,7424,2296,0
1776866273617959,27,14,0,0,0,0,2,12342,6912,1528,0
1776866273552422,26,13,0,0,0,0,210,12349,7424,1784,0
1776866273749033,26,15,0,0,0,0,162,12357,5888,2296,0
1776866273749026,26,16,0,0,0,0,114,12365,7168,3064,0
1776866273749034,24,16,0,0,0,0,66,12373,7424,2552,0
1776866273683497,24,17,0,0,0,0,18,12381,7680,1784,0
1776866273749034,24,16,0,0,0,0,226,12388,7168,2296,0
1776866273683502,25,16,0,0,0,0,178,12396,7936,3832,0
1776866273749035,27,15,0,0,0,0,130,12404,7168,4088,0
1776866273814570,25,15,0,0,0,0,255,-1,-1,-1,255
1776866282072295,-1,-1,31826,48,-2018,9,69,32767,6399,4096,0
1776861987105000,0,0,-31710,48,-2019,8,70,32767,6655,4096,0
1776861987105000,0,0,-29710,48,-2018,13,65,-32513,7167,4352,0
1776861987105000,0,0,-27710,48,-2020,8,67,-32513,6399,4608,0
1776861987105000,0,0,-25710,48,-2023,16,62,32511,6143,4352,0
1776861987105000,0,0,-23710,48,-2021,11,66,32767,6911,4096,0
1776861987105000,0,0,-21710,48,-2018,7,67,32767,6911,4608,0
1776861987105000,0,0,-19710,48,-2021,6,62,32767,6655,4608,0
1776861987105000,0,0,-17710,48,-2028,7,58,-32513,6655,4352,0
1776861987105000,0,0,-15710,48,-2025,5,64,32511,6911,4096,0
1776861987105000,0,0,-1,-1,-1,-1,255,-1,-1,-1,255
1776861990302554,-2024,1,-194,-128,25,16,0,0,0,0,0
1776861990304554,-2029,10,-197,-127,26,18,0,0,0,0,0
1776861990306554,-2021,10,-189,-127,27,18,0,0,0,0,0
1776861990308554,-2019,11,-192,-127,26,16,0,0,0,0,0
1776861990310554,-2019,13,-193,-128,25,15,0,0,0,0,0
1776861990312554,-2024,7,-204,-128,27,15,0,0,0,0,0
1776861990314554,-2024,6,-201,-129,28,17,0,0,0,0,0
1776861990316554,-2016,6,-188,-129,28,18,0,0,0,0,0
1776861990318554,-2021,10,-182,-130,28,18,0,0,0,0,0
1776861990320554,-2021,11,-191,-130,26,15,0,0,0,0,0
1776866282072295,-1,-1,-1,-1,-1,-1,146,12568,5888,3832,0
1776866273683499,24,14,0,0,0,0,98,12576,6912,3064,0
1776866273683495,24,16,0,0,0,0,50,12584,6144,2808,0
1776866273617952,24,16,0,0,0,0,2,12592,7168,2808,0
1776866273617961,26,16,0,0,0,0,210,12599,7680,2552,0
1776866273617962,25,15,0,0,0,0,162,12607,7680,2552,0
1776866273617966,26,16,0,0,0,0,114,12615,7936,2040,0
1776866273683500,29,15,0,0,0,0,66,12623,7424,2296,0
1776866273749038,26,16,0,0,0,0,18,12631,7680,3320,0
1776866273683498,24,16,0,0,0,0,226,12638,6144,3320,0
1776866273683495,22,16,0,0,0,0,255,-1,-1,-1,255
1776866282072295,-1,-1,26290,49,-2020,16,64,-32513,5887,3328,0
1776861987105000,0,0,28290,49,-2019,16,66,-32513,5631,3584,0
1776861987105000,0,0,30290,49,-2018,10,76,-32257,5887,4608,0
1776861987105000,0,0,32290,49,-2022,7,69,-32257,6143,4352,0
1776861987105000,0,0,-31246,49,-2020,10,64,-32513,6655,4096,0
1776861987105000,0,0,-29246,49,-2023,12,70,32767,6911,3584,0
1776861987105000,0,0,-27246,49,-2021,14,73,-32257,6143,3840,0
1776861987105000,0,0,-25246,49,-2023,15,70,-32257,6655,4096,0
1776861987105000,0,0,-23246,49,-2021,13,69,-32257,6911,4352,0
1776861987105000,0,0,-21246,49,-2021,13,67,-32001,6655,4608,0
1776861987105000,0,0,-1,-1,-1,-1,255,-1,-1,-1,255
1776861990362554,-2021,13,-188,-127,23,17,0,0,0,0,0
1776861990364554,-2027,12,-197,-128,23,17,0,0,0,0,0
1776861990366554,-2023,9,-203,-129,25,18,0,0,0,0,0
1776861990368554,-2023,5,-208,-131,25,16,0,0,0,0,0
1776861990370554,-2024,9,-194,-128,27,16,0,0,0,0,0
1776861990372554,-2026,11,-192,-129,28,16,0,0,0,0,0
1776861990374554,-2022,11,-189,-128,27,16,0,0,0,0,0
1776861990376554,-2025,11,-192,-128,25,18,0,0,0,0,0
1776861990378554,-2020,10,-196,-125,23,18,0,0,0,0,0
1776861990380554,-2024,8,-200,-127,23,18,0,0,0,0,0
1776866282072295,-1,-1,-1,-1,-1,-1,242,12802,6656,2040,0
1776866273749031,23,17,0,0,0,0,194,12810,6656,3064,0
1776866273683501,23,17,0,0,0,0,146,12818,7168,2808,0
1776866273617965,25,17,0,0,0,0,98,12826,6656,2040,0
1776866273814569,25,16,0,0,0,0,50,12834,7168,2040,0
1776866273814565,24,16,0,0,0,0,2,12842,6656,1272,0
1776866273617963,26,15,0,0,0,0,210,12849,7936,3064,0
1776866273683503,26,14,0,0,0,0,162,12857,8448,1528,0
1776866273683504,24,15,0,0,0,0,114,12865,7936,2296,0
1776866273683501,24,14,0,0,0,0,66,12873,7168,1784,0
1776866273749027,24,15,0,0,0,0,255,-1,-1,-1,255
1776866282072295,-1,-1,20754,50,-2018,10,55,-32513,6399,3584,0
1776861987105000,0,0,22754,50,-2017,12,58,32767,6143,3840,0
1776861987105000,0,0,24754,50,-2015,9,67,32511,6399,4096,0
1776861987105000,0,0,26754,50,-2020,15,62,-32513,6655,4096,0
1776861987105000,0,0,28754,50,-2018,16,66,-32513,6655,4096,0
1776861987105000,0,0,30754,50,-2024,15,67,-32513,6399,4608,0
1776861987105000,0,0,32754,50,-2023,13,55,-32513,6143,4864,0
1776861987105000,0,0,-30782,50,-2023,12,53,-32257,6143,4608,0
1776861987105000,0,0,-28782,50,-2020,14,63,-32513,6143,3840,0
1776861987105000,0,0,-26782,50,-2023,14,60,-32257,6143,4096,0
1776861987105000,0,0,-1,-1,-1,-1,255,-1,-1,-1,255
1776861990422554,-2024,14,-195,-129,24,15,0,0,0,0,0
1776861990424554,-2028,15,-194,-129,25,14,0,0,0,0,0
1776861990426554,-2024,10,-193,-132,25,16,0,0,0,0,0
1776861990428554,-2021,8,-200,-130,25,15,0,0,0,0,0
1776861990430554,-2019,10,-191,-128,25,15,0,0,0,0,0
1776861990432554,-2022,15,-191,-128,22,15,0,0,0,0,0
1776861990434554,-2023,19,-194,-128,21,16,0,0,0,0,0
1776861990436554,-2023,14,-188,-128,22,15,0,0,0,0,0
1776861990438554,-2026,8,-191,-129,24,17,0,0,0,0,0
1776861990440554,-2023,12,-197,-130,24,15,0,0,0,0,0
1776866282072295,-1,-1,-1,-1,-1,-1,82,13037,5376,4088,0
1776866273617962,25,14,0,0,0,0,167,13241,7680,2040,0
1776866273683512,27,16,0,0,0,0,119,13249,6656,1784,0
1776866273749042,26,16,0,0,0,0,71,13257,6400,2552,0
1776866273683504,25,15,0,0,0,0,23,13265,6400,2296,0
1776866273617960,25,14,0,0,0,0,231,13272,5120,2296,0
1776866273617951,26,14,0,0,0,0,183,13280,5120,1272,0
1776866273749022,27,15,0,0,0,0,135,13288,4096,2552,0
1776866273880110,27,17,0,0,0,0,87,13296,5888,2040,0
1776866273814578,25,18,0,0,0,0,39,13304,7936,2296,0
1776866273814574,24,19,0,0,0,0,255,-1,-1,-1,255
1776866282072295,-1,-1,-9,51,-2021,16,57,-32513,6143,4608,0
1776861987105000,0,0,1991,52,-2025,14,55,-32001,6399,4608,0
1776861987105000,0,0,3991,52,-2027,16,62,32767,6655,4608,0
1776861987105000,0,0,5991,52,-2029,14,70,32767,6655,4096,0
1776861987105000,0,0,7991,52,-2028,13,64,32767,6399,4096,0
1776861987105000,0,0,9991,52,-2028,13,62,32767,6399,4608,0
1776861987105000,0,0,11991,52,-2022,6,63,32767,6399,4352,0
1776861987105000,0,0,13991,52,-2027,6,62,32767,6655,4096,0
1776861987105000,0,0,15991,52,-2028,5,51,32767,6911,3840,0
1776861987105000,0,0,17991,52,-2022,6,49,-32513,6911,4096,0
1776861987105000,0,0,-1,-1,-1,-1,255,-1,-1,-1,255
1776861990532863,-2018,11,-184,-128,26,15,0,0,0,0,0
1776861990534863,-2020,11,-179,-128,25,16,0,0,0,0,0
1776861990536863,-2021,8,-177,-129,24,15,0,0,0,0,0
1776861990538863,-2022,4,-186,-129,23,15,0,0,0,0,0
1776861990540863,-2025,7,-199,-129,25,16,0,0,0,0,0
1776861990542863,-2024,7,-202,-130,27,16,0,0,0,0,0
1776861990544863,-2016,5,-196,-128,25,16,0,0,0,0,0
1776861990546863,-2021,3,-186,-127,24,14,0,0,0,0,0
1776861990548863,-2024,7,-185,-129,25,15,0,0,0,0,0
1776861990550863,-2018,13,-194,-128,24,14,0,0,0,0,0
1776866282072295,-1,-1,-1,-1,-1,-1,55,13468,8192,3576,0
1776866273683496,26,16,0,0,0,0,7,13476,6656,3576,0
1776866273617968,26,17,0,0,0,0,215,13483,7936,3576,0
1776866273683503,24,18,0,0,0,0,167,13491,6912,3320,0
1776866273749036,25,16,0,0,0,0,119,13499,6656,2040,0
1776866273683495,24,15,0,0,0,0,71,13507,6912,1528,0
1776866273617963,24,15,0,0,0,0,23,13515,8960,3320,0
1776866273617956,23,16,0,0,0,0,231,13522,7424,4088,0
1776866273617956,24,16,0,0,0,0,183,13530,7936,2808,0
1776866273749038,23,16,0,0,0,0,135,13538,6656,2296,0
1776866273814569,21,17,0,0,0,0,255,-1,-1,-1,255
1776866282072295,-1,-1,-5545,52,-2021,8,56,32767,5887,4608,0
1776861987105000,0,0,-3545,52,-2025,6,69,32511,6143,3840,0
1776861987105000,0,0,-1545,52,-2026,4,63,-32513,6399,3328,0
1776861987105000,0,0,455,53,-2025,11,66,-32513,6399,3584,0
1776861987105000,0,0,2455,53,-2029,15,53,-32257,6399,4352,0
1776861987105000,0,0,4455,53,-2025,12,68,-32257,6399,4352,0
1776861987105000,0,0,6455,53,-2022,11,66,-32513,6655,4096,0
1776861987105000,0,0,8455,53,-2022,6,68,32255,6399,4352,0
1776861987105000,0,0,10455,53,-2023,9,75,32511,5887,4352,0
1776861987105000,0,0,12455,53,-2020,10,79,-32257,6143,4096,0
1776861987105000,0,0,-1,-1,-1,-1,255,-1,-1,-1,255
1776861990592863,-2023,13,-193,-126,24,16,0,0,0,0,0
1776861990594863,-2022,13,-186,-127,26,16,0,0,0,0,0
1776861990596863,-2020,9,-186,-127,27,15,0,0,0,0,0
1776861990598863,-2018,3,-197,-128,25,17,0,0,0,0,0
1776861990600863,-2022,4,-183,-128,25,17,0,0,0,0,0
1776861990602863,-2023,8,-178,-128,27,17,0,0,0,0,0
1776861990604863,-2023,9,-186,-129,27,17,0,0,0,0,0
1776861990606863,-2017,15,-199,-129,25,15,0,0,0,0,0
1776861990608863,-2019,12,-199,-127,24,16,0,0,0,0,0
1776861990610863,-2019,12,-178,-128,25,18,0,0,0,0,0
1776866282072295,-1,-1,-1,-1,-1,-1,151,13702,7424,3064,0
1776866273749044,26,18,0,0,0,0,103,13710,6400,3320,0
1776866273683499,26,16,0,0,0,0,55,13718,7424,3320,0
1776866273683501,27,16,0,0,0,0,7,13726,7168,2296,0
1776866273683497,28,16,0,0,0,0,215,13733,6912,2552,0
1776866273683500,27,16,0,0,0,0,167,13741,7936,1784,0
1776866273683503,25,17,0,0,0,0,119,13749,7936,1528,0
1776866273683502,25,16,0,0,0,0,71,13757,6400,1272,0
1776866273749031,26,16,0,0,0,0,23,13765,7680,2808,0
1776866273749033,24,18,0,0,0,0,231,13772,7936,3576,0
1776866273749035,22,18,0,0,0,0,255,-1,-1,-1,255
1776866282072295,-1,-1,-11081,53,-2023,10,58,32767,6399,3840,0
1776861987105000,0,0,-9080,53,-2022,14,65,32767,6655,3584,0
1776861987105000,0,0,-7080,53,-2019,11,73,32767,6399,4096,0
1776861987105000,0,0,-5080,53,-2020,12,58,-32513,6911,4096,0
1776861987105000,0,0,-3080,53,-2026,9,63,32767,6399,4096,0
1776861987105000,0,0,-1080,53,-2025,8,56,-32513,6143,4352,0
1776861987105000,0,0,920,54,-2026,10,70,32767,6143,4096,0
1776861987105000,0,0,2921,54,-2024,9,73,32767,6143,4096,0
1776861987105000,0,0,4921,54,-2024,6,77,-32513,6143,4096,0
1776861987105000,0,0,6921,54,-2024,10,64,-32513,6399,3840,0
1776861987105000,0,0,-1,-1,-1,-1,255,-1,-1,-1,255
1776861990652865,-2023,13,-195,-128,25,15,0,0,0,0,0
1776861990654865,-2022,13,-195,-127,24,16,0,0,0,0,0
1776861990656865,-2023,10,-190,-129,26,15,0,0,0,0,0
1776861990658865,-2025,7,-188,-130,28,14,0,0,0,0,0
1776861990660865,-2029,6,-190,-129,24,14,0,0,0,0,0
1776861990662866,-2025,5,-186,-130,22,15,0,0,0,0,0
1776861990664863,-2021,11,-188,-129,23,14,0,0,0,0,0
1776861990666863,-2023,6,-190,-130,23,16,0,0,0,0,0
1776861990668863,-2021,5,-188,-129,24,16,0,0,0,0,0
1776861990670863,-2024,7,-188,-129,25,16,0,0,0,0,0
1776866282072295,-1,-1,-1,-1,-1,-1,247,13936,6656,2552,0
1776866273683508,24,14,0,0,0,0,199,13944,5120,3576,0
1776866273683508,26,14,0,0,0,0,151,13952,5376,3320,0
1776866273683493,27,16,0,0,0,0,103,13960,5120,2296,0
1776866273683489,25,17,0,0,0,0,55,13968,7424,2296,0
1776866273749029,26,17,0,0,0,0,7,13976,6400,3064,0
1776866273749029,25,18,0,0,0,0,215,13983,7680,3576,0
1776866273749024,23,18,0,0,0,0,167,13991,6912,2040,0
1776866273552422,26,19,0,0,0,0,119,13999,7936,2296,0
1776866273683505,26,18,0,0,0,0,72,14007,7680,2808,0
1776866273749038,28,16,0,0,0,0,255,-1,-1,-1,255
1776866282072295,-1,-1,-16616,54,-2020,6,60,32511,7167,4096,0
1776861987105000,0,0,-14615,54,-2021,10,60,32767,6911,3840,0
1776861987105000,0,0,-12615,54,-2020,13,55,32767,6399,4352,0
1776861987105000,0,0,-10615,54,-2021,11,66,32511,6911,4096,0
1776861987105000,0,0,-8615,54,-2021,11,75,32767,6399,3840,0
1776861987105000,0,0,-6615,54,-2024,11,62,-32513,6143,4352,0
1776861987105000,0,0,-4615,54,-2017,11,63,-31745,5887,4096,0
1776861987105000,0,0,-2615,54,-2017,12,59,-32257,6399,3840,0
1776861987105000,0,0,-615,54,-2021,9,58,-32257,6399,4352,0
1776861987105000,0,0,1385,55,-2022,11,62,32767,6655,4608,0
1776861987105000,0,0,-1,-1,-1,-1,255,-1,-1,-1,255
1776861990712865,-2017,10,-191,-130,25,15,0,0,0,0,0
1776861990714865,-2026,10,-191,-130,26,15,0,0,0,0,0
1776861990716865,-2026,10,-190,-128,27,17,0,0,0,0,0
1776861990718865,-2018,11,-195,-128,27,15,0,0,0,0,0
1776861990720865,-2018,11,-182,-128,25,16,0,0,0,0,0
1776861990722865,-2022,10,-188,-127,23,16,0,0,0,0,0
1776861990724865,-2025,12,-187,-128,24,16,0,0,0,0,0
1776861990726865,-2024,9,-184,-129,24,17,0,0,0,0,0
1776861990728865,-2025,7,-193,-129,25,17,0,0,0,0,0
1776861990730865,-2024,7,-192,-128,27,17,0,0,0,0,0
1776866282072295,-1,-1,-1,-1,-1,-1,89,14171,6400,2552,0
1776866273749022,25,17,0,0,0,0,41,14179,6144,3064,0
1776866273880097,24,17,0,0,0,0,249,14186,4864,4088,0
1776866273880093,25,16,0,0,0,0,201,14194,5376,3832,0
1776866273814561,24,16,0,0,0,0,153,14202,6400,3320,0
1776866273749027,25,17,0,0,0,0,105,14210,7680,3064,0
1776866273814564,25,16,0,0,0,0,57,14218,7936,3064,0
1776866273880106,24,14,0,0,0,0,9,14226,6656,3064,0
1776866273749033,23,16,0,0,0,0,217,14233,7936,2808,0
1776866273617966,23,18,0,0,0,0,169,14241,8192,2552,0
1776866273617967,25,16,0,0,0,0,255,-1,-1,-1,255
1776866282072295,-1,-1,-22151,55,-2025,3,64,-32513,6911,4352,0
1776861987105000,0,0,-20151,55,-2023,7,62,32511,7167,3840,0
1776861987105000,0,0,-18151,55,-2022,5,66,32511,6911,4096,0
1776861987105000,0,0,-16151,55,-2022,5,64,32767,6911,4096,0
1776861987105000,0,0,-14151,55,-2021,11,64,-32513,6655,4608,0
1776861987105000,0,0,-12151,55,-2020,8,60,32767,6911,4096,0
1776861987105000,0,0,-10151,55,-2019,12,59,32511,6655,4096,0
1776861987105000,0,0,-8151,55,-2015,9,59,32511,6399,3840,0
1776861987105000,0,0,-6151,55,-2018,7,74,32767,6655,4352,0
1776861987105000,0,0,-4151,55,-2016,4,68,32767,7167,4608,0
1776861987105000,0,0,-1,-1,-1,-1,255,-1,-1,-1,255
1776861990772865,-2018,11,-191,-129,26,16,0,0,0,0,0
1776861990774865,-2014,5,-193,-128,26,16,0,0,0,0,0
1776861990776865,-2019,11,-195,-128,26,17,0,0,0,0,0
1776861990778865,-2021,12,-198,-130,25,18,0,0,0,0,0
1776861990780865,-2023,10,-196,-130,22,17,0,0,0,0,0
1776861990782865,-2018,10,-202,-128,22,15,0,0,0,0,0
1776861990784865,-2025,7,-189,-128,21,14,0,0,0,0,0
1776861990786865,-2027,9,-195,-129,22,16,0,0,0,0,0
1776861990788865,-2025,13,-191,-128,21,18,0,0,0,0,0
1776861990790865,-2025,9,-198,-129,23,16,0,0,0,0,0
1776866282072295,-1,-1,-1,-1,-1,-1,185,14405,6144,3064,0
1776866273683493,26,16,0,0,0,0,137,14413,7424,3320,0
1776866273683492,25,16,0,0,0,0,89,14421,5632,3320,0
1776866273814564,23,16,0,0,0,0,41,14429,5632,1528,0
1776866273683493,22,18,0,0,0,0,249,14436,5888,1528,0
1776866273683494,23,17,0,0,0,0,201,14444,5888,2296,0
1776866273683496,23,16,0,0,0,0,153,14452,6400,3320,0
1776866273683499,24,16,0,0,0,0,105,14460,6656,3064,0
1776866273617960,25,16,0,0,0,0,57,14468,6656,1528,0
1776866273683490,24,15,0,0,0,0,9,14476,6400,2040,0
1776866273683493,26,16,0,0,0,0,255,-1,-1,-1,255
1776866282072295,-1,-1,-27687,56,-2021,14,57,32767,6911,3584,0
1776861987105000,0,0,24623,57,-2021,19,63,-32513,6399,4352,0
1776861987105000,0,0,26623,57,-2026,16,73,-32257,6655,4352,0
1776861987105000,0,0,28623,57,-2019,11,70,32767,6399,4352,0
1776861987105000,0,0,30623,57,-2022,10,65,-32257,5887,4096,0
1776861987105000,0,0,32623,57,-2024,12,66,-32513,6655,3584,0
1776861987105000,0,0,-30913,57,-2025,15,56,-32257,6911,4352,0
1776861987105000,0,0,-28913,57,-2020,15,61,-32513,6655,4864,0
1776861987105000,0,0,-26913,57,-2021,14,62,32255,6399,4352,0
1776861987105000,0,0,-24913,57,-2025,11,65,32511,6143,4352,0
1776861987105000,0,0,-1,-1,-1,-1,255,-1,-1,-1,255
1776861990883175,-2030,9,-190,-129,21,18,0,0,0,0,0
1776861990885175,-2024,8,-193,-129,22,17,0,0,0,0,0
1776861990887175,-2023,6,-182,-128,24,16,0,0,0,0,0
1776861990889175,-2021,4,-180,-129,24,16,0,0,0,0,0
1776861990891175,-2022,6,-186,-127,25,17,0,0,0,0,0
1776861990893175,-2026,8,-189,-128,25,16,0,0,0,0,0
1776861990895175,-2023,8,-188,-127,25,16,0,0,0,0,0
1776861990897175,-2014,13,-184,-127,24,16,0,0,0,0,0
1776861990899175,-2019,15,-187,-127,22,15,0,0,0,0,0
1776861990901175,-2022,10,-187,-128,23,15,0,0,0,0,0
1776866282072295,-1,-1,-1,-1,-1,-1,159,14836,6144,1784,0
1776866273683498,26,17,0,0,0,0,111,14844,7168,3064,0
1776866273749035,28,17,0,0,0,0,63,14852,6656,3576,0
1776866273683492,26,17,0,0,0,0,15,14860,5376,2808,0
1776866273617955,28,18,0,0,0,0,223,14867,7680,3064,0
1776866273552427,27,17,0,0,0,0,175,14875,6912,3320,0
1776866273617959,25,18,0,0,0,0,127,14883,7936,5112,0
1776866273749033,24,17,0,0,0,0,79,14891,8192,3064,0
1776866273814565,23,16,0,0,0,0,31,14899,6912,2296,0
1776866273683494,23,18,0,0,0,0,239,14906,7424,2808,0
1776866273749036,23,17,0,0,0,0,255,-1,-1,-1,255
1776866282072295,-1,-1,17087,58,-2023,10,69,-32513,6655,4096,0
1776861987105000,0,0,19087,58,-2024,11,66,-32513,6655,4352,0
1776861987105000,0,0,21087,58,-2022,10,61,32767,6143,4352,0
1776861987105000,0,0,23087,58,-2022,9,67,-32513,6399,4096,0
1776861987105000,0,0,25087,58,-2021,11,75,-32513,6399,4352,0
1776861987105000,0,0,27087,58,-2023,13,69,32511,5887,4096,0
1776861987105000,0,0,29087,58,-2024,9,64,32511,5631,4096,0
1776861987105000,0,0,31087,58,-2026,10,64,32767,6143,4096,0
1776861987105000,0,0,-32449,58,-2021,9,67,32767,6399,4096,0
1776861987105000,0,0,-30449,58,-2026,8,59,-32257,5887,4352,0
1776861987105000,0,0,-1,-1,-1,-1,255,-1,-1,-1,255
1776861990943175,-2025,11,-191,-129,24,18,0,0,0,0,0
1776861990945175,-2024,6,-193,-128,25,17,0,0,0,0,0
1776861990947175,-2024,13,-191,-128,25,16,0,0,0,0,0
1776861990949175,-2019,11,-199,-129,25,17,0,0,0,0,0
1776861990951175,-2014,15,-198,-127,24,16,0,0,0,0,0
1776861990953175,-2019,16,-185,-129,23,15,0,0,0,0,0
1776861990955175,-2025,9,-179,-129,23,15,0,0,0,0,0
1776861990957175,-2036,12,-189,-130,24,15,0,0,0,0,0
1776861990959175,-2029,14,-198,-129,23,15,0,0,0,0,0
1776861990961175,-2023,10,-194,-127,22,15,0,0,0,0,0
1776866282072295,-1,-1,-1,-1,-1,-1,255,15070,7168,1272,0
1776866273749029,26,15,0,0,0,0,207,15078,6656,2808,0
1776866273749037,27,14,0,0,0,0,159,15086,6400,3320,0
1776866273683492,25,16,0,0,0,0,111,15094,7168,2296,0
1776866273683493,26,15,0,0,0,0,63,15102,7424,2296,0
1776866273749021,24,15,0,0,0,0,15,15110,5888,3320,0
1776866273683495,23,17,0,0,0,0,223,15117,6656,3576,0
1776866273749041,24,18,0,0,0,0,175,15125,6144,3576,0
1776866273749041,23,17,0,0,0,0,127,15133,6656,2808,0
1776866273617961,24,15,0,0,0,0,79,15141,5888,2040,0
1776866273683499,26,16,0,0,0,0,255,-1,-1,-1,255
1776866282072295,-1,-1,11551,59,-2021,8,62,32767,6911,4352,0
1776861987105000,0,0,13551,59,-2020,6,68,32767,6655,3840,0
1776861987105000,0,0,15551,59,-2022,10,74,-32513,6655,3840,0
1776861987105000,0,0,17551,59,-2017,8,72,32767,6399,4096,0
1776861987105000,0,0,19551,59,-2022,8,77,32255,6655,4096,0
1776861987105000,0,0,21551,59,-2019,10,72,32255,6911,3584,0
1776861987105000,0,0,23551,59,-2018,8,64,32767,6399,3584,0
1776861987105000,0,0,25551,59,-2024,9,57,-32513,6399,4096,0
1776861987105000,0,0,27551,59,-2022,17,62,-32513,6655,4096,0
1776861987105000,0,0,29551,59,-2018,14,59,-32257,6655,4608,0
1776861987105000,0,0,-1,-1,-1,-1,255,-1,-1,-1,255
1776861991003175,-2021,10,-201,-128,26,17,0,0,0,0,0
1776861991005175,-2021,12,-200,-129,27,16,0,0,0,0,0
1776861991007175,-2028,15,-192,-130,25,14,0,0,0,0,0
1776861991009175,-2029,13,-192,-130,26,14,0,0,0,0,0
1776861991011175,-2027,8,-188,-128,25,14,0,0,0,0,0
1776861991013175,-2027,5,-187,-128,26,16,0,0,0,0,0
1776861991015175,-2026,10,-189,-127,25,16,0,0,0,0,0
1776861991017175,-2021,12,-199,-127,23,15,0,0,0,0,0
1776861991019175,-2021,10,-194,-129,24,16,0,0,0,0,0
1776861991021175,-2017,7,-193,-128,25,16,0,0,0,0,0
1776866282072295,-1,-1,-1,-1,-1,-1,95,15305,6656,1784,0
1776866273749040,24,14,0,0,0,0,47,15313,6400,1528,0
1776866273749039,27,14,0,0,0,0,255,15320,5632,1272,0
1776866273749039,28,15,0,0,0,0,207,15328,6656,2296,0
1776866273814574,27,15,0,0,0,0,159,15336,7680,2296,0
1776866273880113,26,16,0,0,0,0,111,15344,7168,2296,0
1776866273814565,24,16,0,0,0,0,63,15352,5888,4600,0
1776866273749032,24,17,0,0,0,0,15,15360,7424,2808,0
1776866273749038,25,16,0,0,0,0,223,15367,8448,1528,0
1776866273749032,26,15,0,0,0,0,175,15375,7680,2296,0
1776866273617967,26,14,0,0,0,0,255,-1,-1,-1,255
1776866282072295,-1,-1,6015,60,-2019,11,75,32511,6655,3840,0
1776861987105000,0,0,8016,60,-2026,8,68,32511,6399,3840,0
1776861987105000,0,0,10016,60,-2027,10,63,32511,6655,3840,0
1776861987105000,0,0,12016,60,-2025,11,55,32767,6911,4096,0
1776861987105000,0,0,14016,60,-2023,4,64,32767,6911,3840,0
1776861987105000,0,0,16016,60,-2023,4,64,32767,6911,4096,0
1776861987105000,0,0,18016,60,-2020,5,62,32511,6655,3840,0
1776861987105000,0,0,20016,60,-2023,4,73,32511,6655,3840,0
1776861987105000,0,0,22016,60,-2020,8,71,32511,6655,4096,0
1776861987105000,0,0,24016,60,-2028,5,63,-32513,6655,3840,0
1776861987105000,0,0,-1,-1,-1,-1,255,-1,-1,-1,255
1776861991063176,-2019,5,-194,-126,23,17,0,0,0,0,0
1776861991065177,-2024,5,-195,-127,23,17,0,0,0,0,0
1776861991067177,-2024,3,-203,-128,23,17,0,0,0,0,0
1776861991069177,-2024,7,-202,-129,23,17,0,0,0,0,0
1776861991071177,-2022,14,-194,-129,25,18,0,0,0,0,0
1776861991073177,-2023,11,-190,-128,24,18,0,0,0,0,0
1776861991075177,-2020,10,-186,-127,26,17,0,0,0,0,0
1776861991077177,-2020,9,-193,-129,26,14,0,0,0,0,0
1776861991079177,-2026,7,-186,-129,25,14,0,0,0,0,0
1776861991081177,-2024,4,-175,-128,24,15,0,0,0,0,0
1776866282072295,-1,-1,-1,-1,-1,-1,193,15539,5888,2040,0
1776866273814569,24,15,0,0,0,0,146,15547,6656,1528,0
1776866273683498,24,16,0,0,0,0,95,15555,7168,2040,0
1776866273552426,25,16,0,0,0,0,47,15563,6144,2296,0
1776866273552421,27,15,0,0,0,0,255,15570,6912,3576,0
1776866273552422,25,16,0,0,0,0,207,15578,6400,2808,0
1776866273683503,25,16,0,0,0,0,159,15586,6656,3320,0
1776866273683507,26,16,0,0,0,0,111,15594,6144,2552,0
1776866273617965,26,16,0,0,0,0,63,15602,7424,3576,0
1776866273749037,25,15,0,0,0,0,15,15610,7168,3320,0
1776866273683506,24,16,0,0,0,0,255,-1,-1,-1,255
1776866282072295,-1,-1,479,61,-2023,10,82,-32513,6911,4608,0
1776861987105000,0,0,2480,61,-2019,10,68,32767,6655,4608,0
1776861987105000,0,0,4480,61,-2022,15,65,32767,6399,4096,0
1776861987105000,0,0,6480,61,-2024,15,66,32511,6143,4096,0
1776861987105000,0,0,8480,61,-2020,14,61,32511,6655,4096,0
1776861987105000,0,0,10480,61,-2024,11,66,-32257,6399,4352,0
1776861987105000,0,0,12480,61,-2022,14,72,-32257,6911,4096,0
1776861987105000,0,0,14480,61,-2023,9,70,-32513,7423,4352,0
1776861987105000,0,0,16480,61,-2022,8,60,-32513,6911,4352,0
1776861987105000,0,0,18480,61,-2020,14,51,32767,6399,4608,0
1776861987105000,0,0,-1,-1,-1,-1,255,-1,-1,-1,255
1776861991123176,-2022,10,-195,-128,26,17,0,0,0,0,0
1776861991125177,-2018,8,-194,-129,26,15,0,0,0,0,0
1776861991127177,-2020,3,-200,-128,26,14,0,0,0,0,0
1776861991129177,-2024,10,-199,-127,25,16,0,0,0,0,0
1776861991131177,-2020,12,-186,-127,23,15,0,0,0,0,0
1776861991133177,-2026,12,-198,-129,25,17,0,0,0,0,0
1776861991135177,-2022,10,-190,-131,25,18,0,0,0,0,0
1776861991137177,-2025,8,-200,-130,24,16,0,0,0,0,0
1776861991139177,-2022,8,-185,-128,24,16,0,0,0,0,0
1776861991141177,-2019,8,-194,-128,24,16,0,0,0,0,0
1776866282072295,-1,-1,-1,-1,-1,-1,33,15774,6656,2040,0
1776866273683491,25,17,0,0,0,0,241,15781,7424,2808,0
1776866273814564,25,17,0,0,0,0,193,15789,7168,2296,0
1776866273749038,25,15,0,0,0,0,145,15797,6400,3064,0
1776866273617962,26,16,0,0,0,0,97,15805,7424,2040,0
1776866273552423,28,16,0,0,0,0,49,15813,6656,3832,0
1776866273617944,26,16,0,0,0,0,1,15821,7168,3320,0
1776866273814558,25,15,0,0,0,0,209,15828,7168,3576,0
1776866273814572,25,16,0,0,0,0,161,15836,6400,2808,0
1776866273749042,25,17,0,0,0,0,113,15844,6400,2296,0
1776866273749039,25,16,0,0,0,0,255,-1,-1,-1,255
1776866282072295,-1,-1,-5055,61,-2021,7,67,-32513,6655,4096,0
1776861987105000,0,0,-3055,61,-2018,12,51,-32513,6655,3840,0
1776861987105000,0,0,-1055,61,-2013,7,55,-32257,6911,4096,0
1776861987105000,0,0,945,62,-2013,11,62,-32257,6655,4096,0
1776861987105000,0,0,2945,62,-2021,10,60,-32257,6399,4096,0
1776861987105000,0,0,4945,62,-2017,11,55,-32513,6911,3840,0
1776861987105000,0,0,6945,62,-2022,10,58,-32513,6655,4096,0
1776861987105000,0,0,8945,62,-2024,11,54,-32513,6655,3840,0
1776861987105000,0,0,10945,62,-2025,8,58,-32513,6399,4096,0
1776861987105000,0,0,12945,62,-2029,10,53,32767,6911,4096,0
1776861987105000,0,0,-1,-1,-1,-1,255,-1,-1,-1,255
1776861991183177,-2029,12,-195,-131,27,16,0,0,0,0,0
1776861991232942,-2022,5,-195,-128,25,16,0,0,0,0,0
1776861991234942,-2027,6,-194,-129,26,15,0,0,0,0,0
1776861991236942,-2024,9,-190,-129,24,15,0,0,0,0,0
1776861991238942,-2022,12,-189,-128,24,16,0,0,0,0,0
1776861991240942,-2022,13,-187,-127,26,16,0,0,0,0,0
1776861991242942,-2021,7,-187,-127,25,17,0,0,0,0,0
1776861991244942,-2016,8,-187,-126,24,17,0,0,0,0,0
1776861991246942,-2018,7,-192,-127,24,17,0,0,0,0,0
1776861991248942,-2020,5,-198,-130,25,16,0,0,0,0,0
1776866282072295,-1,-1,-1,-1,-1,-1,22,16195,5376,1784,0
1776866273683496,27,15,0,0,0,0,230,16202,6656,1528,0
1776866273683494,26,16,0,0,0,0,182,16210,7936,2808,0
1776866273552426,25,15,0,0,0,0,134,16218,8192,2552,0
1776866273683493,24,15,0,0,0,0,86,16226,7936,2808,0
1776866273749029,24,16,0,0,0,0,38,16234,7424,3064,0
1776866273617962,25,18,0,0,0,0,246,16241,6656,2552,0
1776866273552420,25,17,0,0,0,0,198,16249,6400,2296,0
1776866273617957,26,16,0,0,0,0,150,16257,7424,2296,0
1776866273814563,25,15,0,0,0,0,102,16265,6144,2552,0
1776866273749036,23,16,0,0,0,0,255,-1,-1,-1,255
1776866282072295,-1,-1,-28362,63,-2023,10,66,-32513,6655,4096,0
1776861987105000,0,0,-26362,63,-2022,13,67,-32513,6399,3840,0
1776861987105000,0,0,-24362,63,-2022,11,53,-32513,6655,4352,0
1776861987105000,0,0,-22362,63,-2020,10,64,-32257,6143,4608,0
1776861987105000,0,0,-20362,63,-2020,11,74,32511,5887,4352,0
1776861987105000,0,0,-18362,63,-2023,9,71,32255,5631,4352,0
1776861987105000,0,0,-16362,63,-2026,10,77,32767,5631,3840,0
1776861987105000,0,0,-14362,63,-2023,14,76,-32513,6143,3840,0
1776861987105000,0,0,-12362,63,-2023,9,70,-32513,6399,4096,0
1776861987105000,0,0,-10362,63,-2017,9,72,-32513,5887,4096,0
1776861987105000,0,0,-1,-1,-1,-1,255,-1,-1,-1,255
1776861991290942,-2018,7,-189,-128,23,17,0,0,0,0,0
1776861991292942,-2022,4,-199,-129,24,15,0,0,0,0,0
1776861991294942,-2028,8,-194,-129,25,14,0,0,0,0,0
1776861991296942,-2027,6,-191,-129,28,15,0,0,0,0,0
1776861991298942,-2028,9,-190,-129,26,15,0,0,0,0,0
1776861991300942,-2025,8,-186,-127,25,15,0,0,0,0,0
1776861991302942,-2025,7,-191,-129,26,16,0,0,0,0,0
1776861991304942,-2024,8,-184,-130,26,17,0,0,0,0,0
1776861991306942,-2021,15,-196,-129,26,16,0,0,0,0,0
1776861991308942,-2017,11,-182,-129,25,16,0,0,0,0,0
1776866282072295,-1,-1,-1,-1,-1,-1,118,16429,8192,3576,0
1776866273683498,26,19,0,0,0,0,70,16437,7168,3320,0
1776866273749033,26,16,0,0,0,0,22,16445,6912,1784,0
1776866273683498,25,15,0,0,0,0,230,16452,7680,3320,0
1776866273683492,24,15,0,0,0,0,182,16460,7424,3320,0
1776866273749028,26,15,0,0,0,0,134,16468,7168,3064,0
1776866273749036,26,15,0,0,0,0,86,16476,6912,2808,0
1776866273749038,28,16,0,0,0,0,38,16484,6656,2040,0
1776866273683493,28,16,0,0,0,0,246,16491,7680,1528,0
1776866273683493,25,16,0,0,0,0,198,16499,6144,2296,0
1776866273749031,23,17,0,0,0,0,255,-1,-1,-1,255
1776866282072295,-1,-1,31638,64,-2020,8,65,32511,6143,3840,0
1776861987105000,0,0,-31898,64,-2021,10,64,32767,6655,3840,0
1776861987105000,0,0,-29898,64,-2016,12,59,-32513,6399,3584,0
1776861987105000,0,0,-27898,64,-2017,12,58,-32513,6399,3584,0
1776861987105000,0,0,-25898,64,-2014,8,61,-32513,6399,3584,0
1776861987105000,0,0,-23898,64,-2019,8,64,-32513,6399,3584,0
1776861987105000,0,0,-21898,64,-2023,9,63,-32513,6399,4096,0
1776861987105000,0,0,-19898,64,-2024,13,65,-32257,6911,4096,0
1776861987105000,0,0,-17898,64,-2025,5,65,-32257,7167,4608,0
1776861987105000,0,0,-15898,64,-2028,6,57,-32257,7167,4608,0
1776861987105000,0,0,-1,-1,-1,-1,255,-1,-1,-1,255
1776861991350942,-2026,7,-193,-127,25,16,0,0,0,0,0
1776861991352942,-2024,5,-192,-128,25,16,0,0,0,0,0
1776861991354942,-2030,7,-194,-128,25,16,0,0,0,0,0
1776861991356942,-2029,12,-191,-129,26,15,0,0,0,0,0
1776861991358942,-2025,12,-193,-129,27,15,0,0,0,0,0
1776861991360942,-2025,6,-197,-128,26,16,0,0,0,0,0
1776861991362942,-2025,13,-200,-128,23,16,0,0,0,0,0
1776861991364942,-2026,8,-194,-128,22,16,0,0,0,0,0
1776861991366942,-2024,9,-189,-129,26,13,0,0,0,0,0
1776861991368942,-2024,11,-190,-129,25,13,0,0,0,0,0
1776866282072295,-1,-1,-1,-1,-1,-1,214,16663,5888,3064,0
1776866273814573,26,14,0,0,0,0,166,16671,5632,1272,0
1776866273683486,26,17,0,0,0,0,118,16679,6656,2296,0
1776866273617957,27,19,0,0,0,0,70,16687,7168,2296,0
1776866273552433,28,17,0,0,0,0,22,16695,6656,2552,0
1776866273617972,27,17,0,0,0,0,230,16702,6400,2552,0
1776866273683499,23,18,0,0,0,0,182,16710,7168,2808,0
1776866273880106,22,18,0,0,0,0,134,16718,6912,2552,0
1776866273683498,24,16,0,0,0,0,86,16726,5888,2296,0
1776866273617963,24,15,0,0,0,0,38,16734,6400,2040,0
1776866273749029,25,17,0,0,0,0,255,-1,-1,-1,255
1776866282072295,-1,-1,26102,65,-2024,5,56,-32513,6399,4352,0
1776861987105000,0,0,28102,65,-2024,9,66,-32257,6399,4352,0
1776861987105000,0,0,30102,65,-2025,15,65,-32513,6655,4096,0
1776861987105000,0,0,32102,65,-2020,11,66,32767,6399,3840,0
1776861987105000,0,0,-31434,65,-2019,4,64,32767,6911,4352,0
1776861987105000,0,0,-29434,65,-2019,4,61,32767,7423,4608,0
1776861987105000,0,0,-27434,65,-2020,5,73,-32513,6911,4608,0
1776861987105000,0,0,-25434,65,-2020,7,72,-32513,6399,4352,0
1776861987105000,0,0,-23434,65,-2022,9,59,-32513,6655,4352,0
1776861987105000,0,0,-21434,65,-2020,14,65,-32513,7423,4096,0
1776861987105000,0,0,-1,-1,-1,-1,255,-1,-1,-1,255
1776861991410942,-2019,12,-189,-130,27,16,0,0,0,0,0
1776861991412942,-2019,13,-190,-130,26,16,0,0,0,0,0
1776861991414942,-2019,13,-187,-129,26,17,0,0,0,0,0
1776861991416942,-2018,14,-192,-128,25,17,0,0,0,0,0
1776861991418942,-2021,10,-193,-129,27,18,0,0,0,0,0
1776861991420942,-2024,9,-188,-130,27,17,0,0,0,0,0
1776861991422942,-2021,7,-191,-129,26,16,0,0,0,0,0
1776861991424942,-2025,5,-197,-128,24,16,0,0,0,0,0
1776861991426942,-2019,8,-211,-127,24,16,0,0,0,0,0
1776861991428942,-2022,6,-202,-130,24,16,0,0,0,0,0
1776866282072295,-1,-1,-1,-1,-1,-1,54,16898,5888,3320,0
1776866273683494,24,14,0,0,0,0,6,16906,3840,3064,0
1776866273683498,23,16,0,0,0,0,214,16913,5120,3064,0
1776866273749029,23,17,0,0,0,0,166,16921,5632,2296,0
1776866273749029,25,16,0,0,0,0,118,16929,6912,2808,0
1776866273749030,25,18,0,0,0,0,70,16937,6400,1784,0
1776866273814565,22,16,0,0,0,0,22,16945,6656,1528,0
1776866273814563,21,16,0,0,0,0,230,16952,6144,1784,0
1776866273749041,22,17,0,0,0,0,182,16960,6656,1784,0
1776866273749035,24,18,0,0,0,0,134,16968,6656,2552,0
1776866273683504,26,17,0,0,0,0,255,-1,-1,-1,255
1776866282072295,-1,-1,20566,66,-2017,11,68,32511,6911,4608,0
1776861987105000,0,0,22566,66,-2020,13,68,32767,6911,4352,0
1776861987105000,0,0,24566,66,-2022,10,67,32767,6655,4352,0
1776861987105000,0,0,26566,66,-2018,10,67,32767,6911,4096,0
1776861987105000,0,0,28566,66,-2019,6,58,31999,6911,4096,0
1776861987105000,0,0,30566,66,-2021,5,63,31999,6655,3584,0
1776861987105000,0,0,32566,66,-2019,13,64,32511,7167,3584,0
1776861987105000,0,0,-30970,66,-2023,11,66,32511,6399,3840,0
1776861987105000,0,0,-28970,66,-2020,9,67,32511,6399,4352,0
1776861987105000,0,0,-26970,66,-2020,9,62,-32513,7167,4096,0
1776861987105000,0,0,-1,-1,-1,-1,255,-1,-1,-1,255
1776861991470942,-2021,9,-194,-128,27,15,0,0,0,0,0
1776861991472942,-2021,1,-189,-129,23,15,0,0,0,0,0
1776861991474942,-2018,2,-192,-130,22,15,0,0,0,0,0
1776861991476942,-2013,9,-195,-129,23,17,0,0,0,0,0
1776861991478942,-2018,8,-186,-129,24,17,0,0,0,0,0
1776861991480942,-2021,3,-194,-129,22,17,0,0,0,0,0
1776861991482942,-2020,6,-193,-129,22,15,0,0,0,0,0
1776861991484942,-2015,8,-195,-128,23,15,0,0,0,0,0
1776861991486942,-2016,11,-200,-128,22,15,0,0,0,0,0
1776861991488942,-2022,10,-195,-127,26,16,0,0,0,0,0
1776866282072295,-1,-1,-1,-1,-1,-1,150,17132,5888,3320,0
1776866273683499,27,16,0,0,0,0,102,17140,6400,2552,0
1776866273683506,24,15,0,0,0,0,54,17148,6656,2040,0
1776866273749029,25,15,0,0,0,0,6,17156,5120,3832,0
1776866273749037,26,15,0,0,0,0,214,17163,5120,3832,0
1776866273683498,25,16,0,0,0,0,166,17171,6656,2808,0
1776866273749028,25,14,0,0,0,0,118,17179,6656,2040,0
1776866273749024,23,16,0,0,0,0,70,17187,7168,3064,0
1776866273683487,25,15,0,0,0,0,22,17195,7680,4344,0
1776866273683497,25,16,0,0,0,0,230,17202,5632,3320,0
1776866273749037,25,16,0,0,0,0,255,-1,-1,-1,255
1776866282072295,-1,-1,15030,67,-2023,8,62,32767,6911,3840,0
1776861987105000,0,0,17030,67,-2021,10,63,32767,7423,3584,0
1776861987105000,0,0,19030,67,-2020,10,66,32511,7423,3584,0
1776861987105000,0,0,21030,67,-2023,11,75,32255,6911,3840,0
1776861987105000,0,0,23030,67,-2026,12,69,32511,6399,4096,0
1776861987105000,0,0,25030,67,-2025,12,67,32511,6655,4096,0
1776861987105000,0,0,27030,67,-2025,10,64,32767,6655,3584,0
1776861987105000,0,0,29030,67,-2019,5,63,32511,6911,3328,0
1776861987105000,0,0,31030,67,-2023,8,64,32767,6655,3328,0
1776861987105000,0,0,-32506,67,-2022,10,59,32767,6911,3840,0
1776861987105000,0,0,-1,-1,-1,-1,255,-1,-1,-1,255
1776861991530942,-2023,9,-194,-129,26,17,0,0,0,0,0
1776861991532942,-2024,8,-193,-130,25,16,0,0,0,0,0
1776861991534942,-2020,7,-199,-128,26,16,0,0,0,0,0
1776861991536942,-2023,7,-187,-129,25,16,0,0,0,0,0
1776861991538942,-2016,9,-189,-130,24,15,0,0,0,0,0
1776861991540942,-2016,10,-195,-128,27,18,0,0,0,0,0
1776861991542942,-2019,15,-194,-129,25,17,0,0,0,0,0
1776861991544942,-2018,15,-184,-128,24,17,0,0,0,0,0
1776861991546942,-2017,8,-178,-129,25,16,0,0,0,0,0
1776861991548942,-2017,7,-191,-129,24,15,0,0,0,0,0
1776866282072295,-1,-1,-1,-1,-1,-1,246,17366,8448,2296,0
1776866273749026,25,14,0,0,0,0,91,17561,5888,2040,0
1776866273814567,24,17,0,0,0,0,43,17569,5120,1528,0
1776866273749030,25,19,0,0,0,0,251,17576,5376,1784,0
1776866273749036,26,17,0,0,0,0,203,17584,6144,3320,0
1776866273617968,27,16,0,0,0,0,155,17592,6912,3320,0
1776866273683499,25,16,0,0,0,0,107,17600,6912,2296,0
1776866273814568,23,14,0,0,0,0,59,17608,6400,2040,0
1776866273749031,24,15,0,0,0,0,11,17616,7168,2296,0
1776866273749037,25,16,0,0,0,0,219,17623,6400,2296,0
1776866273749029,26,15,0,0,0,0,255,-1,-1,-1,255
1776866282072295,-1,-1,-8277,68,-2016,10,64,-32001,6399,3840,0
1776861987105000,0,0,-6277,68,-2019,8,64,-32001,6399,4096,0
1776861987105000,0,0,-4277,68,-2019,7,59,-32257,6911,4352,0
1776861987105000,0,0,-2277,68,-2022,16,59,-32513,6399,4352,0
1776861987105000,0,0,-277,68,-2021,12,62,32767,6399,4352,0
1776861987105000,0,0,1723,69,-2021,15,61,32511,7167,4352,0
1776861987105000,0,0,3723,69,-2016,9,70,32767,6911,4352,0
1776861987105000,0,0,5723,69,-2017,6,64,32767,6399,4096,0
1776861987105000,0,0,7723,69,-2022,10,74,-32513,5631,3840,0
1776861987105000,0,0,9723,69,-2014,10,61,-32257,6399,3840,0
1776861987105000,0,0,-1,-1,-1,-1,255,-1,-1,-1,255
1776861991638707,-2013,9,-199,-127,24,16,0,0,0,0,0
1776861991640707,-2016,13,-195,-127,26,16,0,0,0,0,0
1776861991642707,-2020,14,-191,-127,24,15,0,0,0,0,0
1776861991644707,-2024,12,-193,-128,23,15,0,0,0,0,0
1776861991646707,-2019,13,-194,-128,22,16,0,0,0,0,0
1776861991648707,-2021,16,-198,-129,25,16,0,0,0,0,0
1776861991650707,-2021,15,-201,-127,25,15,0,0,0,0,0
1776861991652707,-2018,12,-195,-127,24,14,0,0,0,0,0
1776861991654707,-2028,4,-195,-127,23,13,0,0,0,0,0
1776861991656707,-2027,10,-192,-128,25,14,0,0,0,0,0
1776866282072295,-1,-1,-1,-1,-1,-1,235,17787,5888,4088,0
1776866273880103,27,13,0,0,0,0,187,17795,5376,2552,0
1776866273749038,25,15,0,0,0,0,139,17803,4096,3576,0
1776866273749043,25,16,0,0,0,0,91,17811,4352,4088,0
1776866273749033,23,16,0,0,0,0,43,17819,5376,3320,0
1776866273749034,22,16,0,0,0,0,251,17826,5888,2808,0
1776866273880106,23,17,0,0,0,0,203,17834,6144,2808,0
1776866273749041,27,15,0,0,0,0,155,17842,5632,2552,0
1776866273749044,28,16,0,0,0,0,107,17850,6144,2296,0
1776866273617970,28,17,0,0,0,0,59,17858,6912,2552,0
1776866273617964,27,18,0,0,0,0,255,-1,-1,-1,255
1776866282072295,-1,-1,-13813,69,-2019,12,66,32255,6655,4608,0
1776861987105000,0,0,-11813,69,-2022,7,66,32511,7423,3840,0
1776861987105000,0,0,-9813,69,-2023,7,61,-32513,7167,3584,0
1776861987105000,0,0,-7813,69,-2018,7,65,32767,6399,4096,0
1776861987105000,0,0,-5813,69,-2023,8,64,32767,6399,3840,0
1776861987105000,0,0,-3813,69,-2017,7,67,32767,6655,3840,0
1776861987105000,0,0,-1813,69,-2018,9,70,32511,6655,3840,0
1776861987105000,0,0,187,70,-2020,12,70,32511,6911,4096,0
1776861987105000,0,0,2187,70,-2021,6,63,32767,7167,4096,0
1776861987105000,0,0,4187,70,-2023,16,56,-32513,7167,3840,0
1776861987105000,0,0,-1,-1,-1,-1,255,-1,-1,-1,255
1776861991698707,-2024,14,-195,-128,24,16,0,0,0,0,0
1776861991700707,-2019,7,-196,-128,24,16,0,0,0,0,0
1776861991702707,-2014,10,-192,-130,24,15,0,0,0,0,0
1776861991704707,-2015,15,-193,-129,24,17,0,0,0,0,0
1776861991706707,-2020,12,-191,-128,25,17,0,0,0,0,0
1776861991708707,-2017,5,-185,-129,25,17,0,0,0,0,0
1776861991710707,-2017,6,-175,-129,24,14,0,0,0,0,0
1776861991712707,-2016,12,-186,-130,24,15,0,0,0,0,0
1776861991714707,-2020,13,-182,-130,25,17,0,0,0,0,0
1776861991716707,-2023,14,-190,-129,25,18,0,0,0,0,0
1776866282072295,-1,-1,-1,-1,-1,-1,75,18022,6656,2040,0
1776866273749034,24,18,0,0,0,0,27,18030,5376,2296,0
1776866273749028,24,17,0,0,0,0,235,18037,6144,2808,0
1776866273814573,21,17,0,0,0,0,187,18045,5632,2552,0
1776866273814564,21,17,0,0,0,0,139,18053,6144,2552,0
1776866273617962,23,16,0,0,0,0,91,18061,5888,2296,0
1776866273749030,25,18,0,0,0,0,43,18069,5376,2808,0
1776866273814575,24,17,0,0,0,0,251,18076,6400,2552,0
1776866273749034,24,17,0,0,0,0,203,18084,5888,2552,0
1776866273749030,24,16,0,0,0,0,155,18092,6144,4344,0
1776866273749016,24,16,0,0,0,0,255,-1,-1,-1,255
1776866282072295,-1,-1,-19349,70,-2025,11,67,32767,6143,4096,0
1776861987105000,0,0,-17349,70,-2023,9,63,32511,6399,3840,0
1776861987105000,0,0,-15349,70,-2023,6,68,32767,7167,4096,0
1776861987105000,0,0,-13349,70,-2023,8,65,32767,7423,4096,0
1776861987105000,0,0,-11349,70,-2022,6,62,-32001,7167,4352,0
1776861987105000,0,0,-9349,70,-2023,8,70,-32257,7167,4352,0
1776861987105000,0,0,-7349,70,-2023,9,60,-32513,6655,4864,0
1776861987105000,0,0,-5349,70,-2026,5,59,-32001,7167,4352,0
1776861987105000,0,0,-3349,70,-2025,9,65,-32257,6911,4352,0
1776861987105000,0,0,-1349,70,-2022,12,68,-31745,6655,4096,0
1776861987105000,0,0,-1,-1,-1,-1,255,-1,-1,-1,255
1776861991758707,-2022,14,-184,-127,25,15,0,0,0,0,0
1776861991760707,-2018,6,-183,-128,26,16,0,0,0,0,0
1776861991762707,-2026,6,-187,-127,27,16,0,0,0,0,0
1776861991764707,-2022,6,-190,-128,27,16,0,0,0,0,0
1776861991766707,-2019,12,-194,-128,25,17,0,0,0,0,0
1776861991768707,-2018,7,-192,-129,23,17,0,0,0,0,0
1776861991770707,-2017,12,-186,-130,22,16,0,0,0,0,0
1776861991772707,-2024,13,-196,-130,23,17,0,0,0,0,0
1776861991774707,-2018,10,-189,-131,26,16,0,0,0,0,0
1776861991776707,-2020,8,-186,-129,24,16,0,0,0,0,0
1776866282072295,-1,-1,-1,-1,-1,-1,171,18256,7680,2040,0
1776866273749032,23,17,0,0,0,0,123,18264,8704,3320,0
1776866273749035,24,15,0,0,0,0,75,18272,7168,3064,0
1776866273683486,26,15,0,0,0,0,27,18280,7424,3832,0
1776866273617954,25,15,0,0,0,0,235,18287,7168,2040,0
1776866273683510,23,16,0,0,0,0,187,18295,8960,1784,0
1776866273617970,24,15,0,0,0,0,139,18303,7680,2296,0
1776866273683503,23,16,0,0,0,0,91,18311,7936,2296,0
1776866273617968,23,14,0,0,0,0,43,18319,7424,2808,0
1776866273683509,23,13,0,0,0,0,251,18326,6912,2296,0
1776866273683505,24,12,0,0,0,0,255,-1,-1,-1,255
1776866282072295,-1,-1,-24885,71,-2028,13,61,32767,6399,3840,0
1776861987105000,0,0,-22885,71,-2025,16,51,-32513,6655,4096,0
1776861987105000,0,0,-20885,71,-2029,13,53,-32257,6399,4096,0
1776861987105000,0,0,-18885,71,-2028,13,66,-32257,6655,4096,0
1776861987105000,0,0,-16885,71,-2025,10,55,-32513,6399,4352,0
1776861987105000,0,0,-14885,71,-2024,8,63,32767,5887,4352,0
1776861987105000,0,0,-12885,71,-2024,9,58,-32513,5887,4352,0
1776861987105000,0,0,-10885,71,-2021,10,60,-32257,6399,3840,0
1776861987105000,0,0,-8885,71,-2024,9,62,-32513,6655,3840,0
1776861987105000,0,0,-6885,71,-2024,15,72,32255,6911,3584,0
1776861987105000,0,0,-1,-1,-1,-1,255,-1,-1,-1,255
1776861991818707,-2023,15,-186,-131,27,15,0,0,0,0,0
1776861991820708,-2021,11,-189,-129,23,14,0,0,0,0,0
1776861991822708,-2017,11,-193,-127,21,15,0,0,0,0,0
1776861991824708,-2014,7,-197,-127,24,16,0,0,0,0,0
1776861991826708,-2022,9,-196,-127,26,17,0,0,0,0,0
1776861991828708,-2023,12,-194,-128,27,16,0,0,0,0,0
1776861991830708,-2025,15,-195,-128,27,18,0,0,0,0,0
1776861991832708,-2021,10,-196,-128,27,17,0,0,0,0,0
1776861991834708,-2022,9,-195,-128,27,16,0,0,0,0,0
1776861991836708,-2024,12,-193,-129,27,17,0,0,0,0,0
1776866282072295,-1,-1,-1,-1,-1,-1,12,18491,6144,3064,0
1776866273749032,26,17,0,0,0,0,220,18498,6656,2296,0
1776866273749039,27,17,0,0,0,0,172,18506,8192,3320,0
1776866273683498,25,17,0,0,0,0,124,18514,8192,4344,0
1776866273617967,24,16,0,0,0,0,76,18522,8960,4344,0
1776866273552431,22,16,0,0,0,0,28,18530,8448,2296,0
1776866273617962,24,16,0,0,0,0,236,18537,6912,2296,0
1776866273683503,25,16,0,0,0,0,188,18545,5888,3320,0
1776866273683497,25,17,0,0,0,0,140,18553,6912,3576,0
1776866273486878,27,18,0,0,0,0,92,18561,8192,2552,0
1776866273552415,27,19,0,0,0,0,255,-1,-1,-1,255
1776866282072295,-1,-1,-30420,72,-2019,9,68,32767,6911,4352,0
1776861987105000,0,0,-28420,72,-2017,11,67,32511,6911,4352,0
1776861987105000,0,0,-26420,72,-2015,7,72,-32257,6399,4608,0
1776861987105000,0,0,-24420,72,-2022,7,60,-32257,6399,4864,0
1776861987105000,0,0,-22420,72,-2023,11,64,32511,6655,4096,0
1776861987105000,0,0,-20420,72,-2022,12,76,-32513,6399,4096,0
