# KAPUTNIK Flight Data v5
# Sample rate: 500 Hz
# Samples: 4844
# Accel range: +/-16 g
# Gyro range: +/-2000 dps
# Epoch start: 1776861432105
epoch_us,ax,ay,az,gx,gy,gz,gp14,mx,my,mz,mag_valid
1776861432105362,-2019,-2,-156,-130,27,14,0,0,0,0,0
1776861432107000,-2022,-1,-158,-130,26,17,0,0,0,0,0
1776861432109000,-2022,-11,-153,-130,25,18,0,0,0,0,0
1776861432111002,-2025,-9,-161,-129,27,18,0,0,0,0,0
1776861432113001,-2025,-7,-149,-127,25,19,0,0,0,0,0
1776861432115000,-2019,-7,-157,-128,23,18,0,0,0,0,0
1776861432117000,-2023,1,-163,-127,22,18,0,0,0,0,0
1776861432119000,-2026,4,-159,-129,23,18,0,0,0,0,0
1776861432121000,-2021,0,-143,-128,25,19,0,0,0,0,0
1776861432123000,-2019,-3,-150,-128,25,19,0,0,0,0,0
1776861432125000,-2021,-1,-151,-129,22,17,208,294,7424,-1800,255
1776865718814603,23,16,0,0,0,0,161,302,8192,-1288,255
1776865718749069,25,14,0,0,0,0,113,310,7168,-2312,255
1776865718617997,26,16,0,0,0,0,65,318,6912,-2056,255
1776865718749070,25,16,0,0,0,0,17,326,6400,-1544,255
1776865718814613,23,16,0,0,0,0,225,333,5376,-2056,255
1776865718749070,23,16,0,0,0,0,177,341,6400,-3080,255
1776865718749063,26,16,0,0,0,0,129,349,6400,-776,255
1776865718683529,26,18,0,0,0,0,81,357,7424,-1800,255
1776865718617986,22,18,0,0,0,0,33,365,6400,-1032,255
1776865718683534,23,16,0,0,0,0,241,372,6144,-264,255
1776865718814604,24,14,31936,1,-2023,-1,100,-32513,6399,3840,0
1776861432105000,0,0,-31600,1,-2024,-3,92,32767,6655,4096,0
1776861432105000,0,0,-29600,1,-2024,-10,89,32767,7167,4096,0
1776861432105000,0,0,-27600,1,-2025,-8,88,-32513,7423,3840,0
1776861432105000,0,0,-25600,1,-2029,-5,88,32767,6911,3328,0
1776861432105000,0,0,-23600,1,-2031,-6,97,-32513,6655,3840,0
1776861432105000,0,0,-21600,1,-2027,-7,107,32767,6143,3840,0
1776861432105000,0,0,-19600,1,-2020,-5,99,32255,6399,4352,0
1776861432105000,0,0,-17600,1,-2018,-4,95,32767,6399,4608,0
1776861432105000,0,0,-15600,1,-2019,-6,100,32767,6399,4608,0
1776861432105000,0,0,-13600,1,-2018,-6,86,32511,6655,4352,0
1776861432224474,-2025,-7,-162,-129,28,16,0,0,0,0,0
1776861432226474,-2017,-6,-163,-129,28,16,0,0,0,0,0
1776861432228474,-2023,-5,-146,-129,26,17,0,0,0,0,0
1776861432230474,-2024,-5,-148,-129,26,16,0,0,0,0,0
1776861432232474,-2025,-7,-157,-129,25,14,0,0,0,0,0
1776861432234474,-2025,-5,-155,-130,25,15,0,0,0,0,0
1776861432236474,-2020,-6,-155,-128,28,16,0,0,0,0,0
1776861432238474,-2021,-8,-159,-127,27,17,0,0,0,0,0
1776861432240474,-2022,-14,-153,-129,25,17,0,0,0,0,0
1776861432242474,-2021,-8,-167,-129,24,16,0,0,0,0,0
1776861432244474,-2021,-8,-162,-128,24,16,162,552,6912,-2056,255
1776865718749065,26,18,0,0,0,0,114,560,6912,-1032,255
1776865718683531,26,17,0,0,0,0,66,568,6656,-1288,255
1776865718683534,25,16,0,0,0,0,18,576,6144,-1032,255
1776865718749061,25,16,0,0,0,0,226,583,5376,-776,255
1776865718683536,24,17,0,0,0,0,178,591,6144,-1288,255
1776865718749063,25,17,0,0,0,0,130,599,6400,-1032,255
1776865718814601,25,17,0,0,0,0,82,607,5120,-776,255
1776865718749060,24,16,0,0,0,0,34,615,6144,-776,255
1776865718683533,26,16,0,0,0,0,242,622,6912,-8,255
1776865718683530,25,16,0,0,0,0,194,630,6144,-8,255
1776865718749072,23,17,32401,2,-2026,-7,94,32255,6143,4608,0
1776861432105000,0,0,-31135,2,-2022,-5,92,32511,6399,4096,0
1776861432105000,0,0,-29135,2,-2021,-4,93,-32513,6655,4096,0
1776861432105000,0,0,-27135,2,-2022,-6,98,-32257,6143,4096,0
1776861432105000,0,0,-25135,2,-2023,-4,96,-32001,6399,4096,0
1776861432105000,0,0,-23135,2,-2021,1,92,-32513,6399,4352,0
1776861432105000,0,0,-21135,2,-2021,-5,94,32767,6143,4352,0
1776861432105000,0,0,-19135,2,-2024,-4,98,-32513,6399,4096,0
1776861432105000,0,0,-17135,2,-2029,-6,103,32767,6399,4096,0
1776861432105000,0,0,-15135,2,-2029,-4,100,-32257,6399,4096,0
1776861432105000,0,0,-13135,2,-2029,-9,95,-32257,7167,4096,0
1776861432290473,-2031,-8,-160,-128,25,17,0,0,0,0,0
1776861432292473,-2025,-5,-158,-127,25,19,0,0,0,0,0
1776861432294473,-2022,-4,-148,-128,25,18,0,0,0,0,0
1776861432296473,-2020,0,-147,-127,23,16,0,0,0,0,0
1776861432298473,-2020,2,-156,-128,22,17,0,0,0,0,0
1776861432300473,-2021,-1,-153,-126,26,18,0,0,0,0,0
1776861432302473,-2022,-1,-153,-127,27,17,0,0,0,0,0
1776861432304473,-2021,-3,-152,-126,25,16,0,0,0,0,0
1776861432306473,-2021,-5,-161,-125,23,16,0,0,0,0,0
1776861432308473,-2023,-7,-164,-126,24,16,0,0,0,0,0
1776861432310473,-2020,-6,-158,-127,26,15,113,810,7168,-1288,255
1776865718749059,27,16,0,0,0,0,65,818,6912,-8,255
1776865718749064,26,16,0,0,0,0,17,826,6400,-520,255
1776865718749069,25,15,0,0,0,0,225,833,6912,-2312,255
1776865718814608,25,15,0,0,0,0,177,841,7168,-1032,255
1776865718814604,26,17,0,0,0,0,129,849,6400,-2312,255
1776865718552451,26,17,0,0,0,0,81,857,7424,-1288,255
1776865718552450,24,17,0,0,0,0,33,865,6144,-1288,255
1776865718617998,25,15,0,0,0,0,241,872,6144,-1288,255
1776865718617991,26,14,0,0,0,0,193,880,6912,-1544,255
1776865718618001,25,16,0,0,0,0,145,888,5632,-2312,255
1776865718683539,24,16,-32672,3,-2026,-13,106,-32257,6655,3584,0
1776861432105000,0,0,-30672,3,-2019,-13,100,-32001,6655,3840,0
1776861432105000,0,0,-28672,3,-2022,-14,99,-32257,6143,4096,0
1776861432105000,0,0,-26672,3,-2023,-7,101,-32513,6399,4352,0
1776861432105000,0,0,-24672,3,-2021,-3,99,32255,6655,4096,0
1776861432105000,0,0,-22672,3,-2026,-6,101,32511,6399,4352,0
1776861432105000,0,0,-20672,3,-2029,-3,97,-32513,6911,4352,0
1776861432105000,0,0,-18672,3,-2024,-3,100,32767,7167,4096,0
1776861432105000,0,0,-16672,3,-2024,-5,95,-32513,6911,4096,0
1776861432105000,0,0,-14672,3,-2023,-6,105,-32513,6143,4096,0
1776861432105000,0,0,-12672,3,-2029,-5,100,-32257,5631,4096,0
1776861432356472,-2025,-10,-160,-127,24,15,0,0,0,0,0
1776861432358472,-2029,-10,-161,-128,26,15,0,0,0,0,0
1776861432360472,-2024,-6,-154,-129,26,17,0,0,0,0,0
1776861432362472,-2021,-7,-157,-128,25,17,0,0,0,0,0
1776861432364472,-2025,-2,-151,-129,25,16,0,0,0,0,0
1776861432366472,-2024,-3,-141,-129,24,17,0,0,0,0,0
1776861432368472,-2016,-6,-153,-127,25,16,0,0,0,0,0
1776861432370472,-2023,-1,-152,-126,25,16,0,0,0,0,0
1776861432372472,-2026,-1,-154,-127,26,17,0,0,0,0,0
1776861432374472,-2028,-4,-160,-128,24,16,0,0,0,0,0
1776861432376472,-2022,-3,-157,-128,21,17,66,1068,5376,760,0
1776865718814605,25,16,0,0,0,0,18,1076,4608,248,0
1776865718814616,26,15,0,0,0,0,226,1083,5376,-8,255
1776865718880151,26,17,0,0,0,0,178,1091,5376,-1800,255
1776865718749059,26,17,0,0,0,0,130,1099,6144,-1032,255
1776865718683513,24,16,0,0,0,0,82,1107,6912,-520,255
1776865718617993,23,17,0,0,0,0,34,1115,7424,-1288,255
1776865718617998,25,17,0,0,0,0,242,1122,7168,-776,255
1776865718749065,24,16,0,0,0,0,194,1130,6400,-776,255
1776865718749064,25,18,0,0,0,0,146,1138,6656,-1032,255
1776865718814604,27,17,0,0,0,0,98,1146,6144,248,0
1776865718749067,27,17,-32207,4,-2019,-3,100,32767,7423,4608,0
1776861432105000,0,0,-30207,4,-2022,-2,98,32767,7167,4608,0
1776861432105000,0,0,-28207,4,-2021,-2,102,32767,6655,4096,0
1776861432105000,0,0,-26207,4,-2026,0,111,32255,6399,3840,0
1776861432105000,0,0,-24207,4,-2028,0,102,32767,6399,3840,0
1776861432105000,0,0,-22208,4,-2022,-1,94,-32513,7167,3584,0
1776861432105000,0,0,-20208,4,-2026,-3,95,-32513,7423,4096,0
1776861432105000,0,0,-18208,4,-2025,-4,94,-32513,7167,4096,0
1776861432105000,0,0,-16208,4,-2027,-7,99,-32257,6655,4096,0
1776861432105000,0,0,-14208,4,-2024,-4,102,-32257,5887,4352,0
1776861432105000,0,0,-12208,4,-2023,-6,98,-32001,6399,4096,0
1776861432422474,-2023,-7,-152,-128,25,16,0,0,0,0,0
1776861432424474,-2021,-7,-159,-129,27,17,0,0,0,0,0
1776861432426474,-2024,-1,-152,-130,26,18,0,0,0,0,0
1776861432428474,-2025,-4,-153,-128,24,18,0,0,0,0,0
1776861432430474,-2026,-9,-152,-127,23,19,0,0,0,0,0
1776861432432474,-2024,-8,-162,-128,26,17,0,0,0,0,0
1776861432434474,-2028,-6,-161,-128,27,16,0,0,0,0,0
1776861432436474,-2025,-2,-153,-129,25,16,0,0,0,0,0
1776861432438474,-2023,-2,-157,-129,22,19,0,0,0,0,0
1776861432440474,-2029,-6,-163,-127,23,17,0,0,0,0,0
1776861432442474,-2023,-7,-159,-129,26,18,18,1326,6400,-1288,255
1776865718814597,25,18,0,0,0,0,226,1333,6912,-1800,255
1776865718880134,24,17,0,0,0,0,178,1341,6912,-520,255
1776865718683536,25,17,0,0,0,0,130,1349,6144,-1544,255
1776865718749069,25,17,0,0,0,0,82,1357,4608,-520,255
1776865718683533,26,16,0,0,0,0,34,1365,5120,248,0
1776865718683536,26,15,0,0,0,0,242,1372,6656,-8,255
1776865718683534,26,16,0,0,0,0,194,1380,6400,-1032,255
1776865718749067,26,16,0,0,0,0,146,1388,6656,-1288,255
1776865718683530,24,17,0,0,0,0,98,1396,6912,-776,255
1776865718814612,24,18,0,0,0,0,50,1404,6400,-1288,255
1776865718880153,23,18,-31743,5,-2025,-5,105,-31745,6143,4096,0
1776861432105000,0,0,-29743,5,-2021,-5,102,-32257,6399,4096,0
1776861432105000,0,0,-27743,5,-2021,-11,93,-32257,6911,3840,0
1776861432105000,0,0,-25743,5,-2021,-8,96,32767,6655,4096,0
1776861432105000,0,0,-23743,5,-2023,-3,94,32767,6143,4096,0
1776861432105000,0,0,-21743,5,-2030,-5,87,-32513,5119,3584,0
1776861432105000,0,0,-19743,5,-2029,-1,91,32767,5887,3584,0
1776861432105000,0,0,-17743,5,-2025,-6,94,-32001,6655,3584,0
1776861432105000,0,0,-15743,5,-2024,-5,91,-32257,6399,4096,0
1776861432105000,0,0,-13743,5,-2024,-5,102,-32513,6655,4096,0
1776861432105000,0,0,-11743,5,-2021,-5,101,-32513,7167,4352,0
1776861432488473,-2022,-7,-151,-130,25,16,0,0,0,0,0
1776861432490473,-2022,-7,-153,-129,24,17,0,0,0,0,0
1776861432492473,-2020,-7,-156,-128,24,18,0,0,0,0,0
1776861432494473,-2019,-4,-156,-127,24,17,0,0,0,0,0
1776861432496473,-2022,-1,-160,-128,25,16,0,0,0,0,0
1776861432498473,-2019,-6,-163,-128,26,17,0,0,0,0,0
1776861432500473,-2016,-1,-163,-127,25,16,0,0,0,0,0
1776861432502473,-2020,2,-154,-127,23,15,0,0,0,0,0
1776861432504473,-2022,-2,-164,-126,25,16,0,0,0,0,0
1776861432506473,-2021,-2,-159,-128,26,16,0,0,0,0,0
1776861432508473,-2019,-3,-155,-128,24,16,224,1583,5632,248,0
1776865718814619,22,17,0,0,0,0,176,1591,5376,504,0
1776865718749076,23,18,0,0,0,0,128,1599,4864,-264,255
1776865718683533,24,17,0,0,0,0,80,1607,6912,-1544,255
1776865718814608,25,16,0,0,0,0,32,1615,5888,-1032,255
1776865718749075,24,16,0,0,0,0,240,1622,6656,-1288,255
1776865718814604,24,17,0,0,0,0,192,1630,6656,-264,255
1776865718880139,24,18,0,0,0,0,144,1638,6656,-1032,255
1776865718749066,24,15,0,0,0,0,96,1646,6144,-520,255
1776865718617999,24,15,0,0,0,0,48,1654,6400,-264,255
1776865718683526,24,18,0,0,0,0,0,1662,5376,-264,255
1776865718683528,23,17,17017,7,-2025,-7,101,-32001,7935,4352,0
1776861432105000,0,0,19017,7,-2024,-5,109,-32257,6911,4352,0
1776861432105000,0,0,21017,7,-2025,-8,105,-32257,6143,4096,0
1776861432105000,0,0,23017,7,-2030,-6,105,-32257,5631,4096,0
1776861432105000,0,0,25017,7,-2025,-5,100,32767,6143,4352,0
1776861432105000,0,0,27017,7,-2022,-5,89,32767,6655,4096,0
1776861432105000,0,0,29017,7,-2025,-8,97,32511,6399,4352,0
1776861432105000,0,0,31017,7,-2024,-5,99,32511,6143,4352,0
1776861432105000,0,0,-32519,7,-2022,-5,99,-32513,5887,4096,0
1776861432105000,0,0,-30519,7,-2024,-5,102,-32513,5631,4352,0
1776861432105000,0,0,-28519,7,-2022,-6,100,-32513,5887,4608,0
1776861432602771,-2020,-8,-153,-128,22,18,0,0,0,0,0
1776861432604769,-2022,-10,-155,-129,23,17,0,0,0,0,0
1776861432606769,-2027,-5,-155,-129,24,17,0,0,0,0,0
1776861432608769,-2024,-6,-164,-129,25,18,0,0,0,0,0
1776861432610769,-2024,-8,-154,-129,26,18,0,0,0,0,0
1776861432612769,-2026,-3,-151,-129,25,17,0,0,0,0,0
1776861432614769,-2021,-1,-152,-129,24,18,0,0,0,0,0
1776861432616769,-2023,-1,-154,-129,25,18,0,0,0,0,0
1776861432618769,-2023,-3,-161,-130,23,17,0,0,0,0,0
1776861432620769,-2022,-4,-163,-131,24,17,0,0,0,0,0
1776861432622769,-2022,-2,-153,-131,26,17,91,2030,6912,-264,255
1776865718552461,24,17,0,0,0,0,43,2038,6400,-776,255
1776865718552464,23,15,0,0,0,0,251,2045,6144,-2312,255
1776865718618002,23,16,0,0,0,0,203,2053,6912,-2056,255
1776865718617990,23,15,0,0,0,0,155,2061,5632,-776,255
1776865718617992,25,14,0,0,0,0,107,2069,5120,-1032,255
1776865718617992,26,15,0,0,0,0,59,2077,5632,-776,255
1776865718617999,27,17,0,0,0,0,11,2085,6400,-1544,255
1776865718814604,26,17,0,0,0,0,219,2092,7680,-264,255
1776865718683528,25,17,0,0,0,0,171,2100,6912,-1544,255
1776865718749056,24,16,0,0,0,0,123,2108,7168,-776,255
1776865718880136,24,17,17482,8,-2024,-9,105,-32513,6911,4608,0
1776861432105000,0,0,19482,8,-2026,-2,102,32767,6655,4096,0
1776861432105000,0,0,21482,8,-2020,0,103,32767,6399,4096,0
1776861432105000,0,0,23482,8,-2022,-8,90,32767,6655,3840,0
1776861432105000,0,0,25482,8,-2022,-5,91,32767,6399,4096,0
1776861432105000,0,0,27482,8,-2023,-5,101,-32513,6399,4352,0
1776861432105000,0,0,29482,8,-2026,-9,101,-32513,6655,4096,0
1776861432105000,0,0,31482,8,-2024,-3,100,-32513,6911,4608,0
1776861432105000,0,0,-32054,8,-2019,-7,105,-32257,6911,4608,0
1776861432105000,0,0,-30054,8,-2021,-5,101,-32257,6399,4608,0
1776861432105000,0,0,-28054,8,-2023,-8,102,32511,6655,4096,0
1776861432668769,-2021,-8,-150,-129,25,17,0,0,0,0,0
1776861432670769,-2022,-8,-154,-128,24,17,0,0,0,0,0
1776861432672769,-2023,-4,-161,-129,26,15,0,0,0,0,0
1776861432674769,-2015,-2,-156,-129,28,15,0,0,0,0,0
1776861432676769,-2017,-4,-148,-129,29,16,0,0,0,0,0
1776861432678769,-2021,-7,-145,-129,27,17,0,0,0,0,0
1776861432680769,-2022,-11,-151,-129,27,17,0,0,0,0,0
1776861432682769,-2021,-6,-149,-128,28,15,0,0,0,0,0
1776861432684769,-2023,-9,-158,-130,25,16,0,0,0,0,0
1776861432686769,-2026,-6,-162,-128,25,18,0,0,0,0,0
1776861432688769,-2033,-11,-155,-128,25,16,43,2288,6144,-1800,255
1776865718814604,25,15,0,0,0,0,251,2295,5888,-1544,255
1776865718814608,26,15,0,0,0,0,203,2303,5888,-1288,255
1776865718683530,26,14,0,0,0,0,155,2311,5632,-1288,255
1776865718683529,25,16,0,0,0,0,107,2319,4352,-1288,255
1776865718683533,23,17,0,0,0,0,59,2327,6400,-1288,255
1776865718749074,23,15,0,0,0,0,11,2335,6144,-520,255
1776865718683535,27,14,0,0,0,0,219,2342,6400,-2056,255
1776865718683526,27,16,0,0,0,0,171,2350,5888,-1544,255
1776865718617985,22,16,0,0,0,0,123,2358,6144,-520,255
1776865718617986,22,17,0,0,0,0,75,2366,4352,-1800,255
1776865718683523,23,18,17946,9,-2027,-9,92,32767,6143,4352,0
1776861432105000,0,0,19946,9,-2023,-4,90,-32513,6655,3840,0
1776861432105000,0,0,21946,9,-2023,-7,99,-32257,6911,3840,0
1776861432105000,0,0,23946,9,-2021,-7,91,32767,6655,4096,0
1776861432105000,0,0,25946,9,-2022,-9,92,-32513,6655,4352,0
1776861432105000,0,0,27946,9,-2025,-7,91,-32001,6143,4096,0
1776861432105000,0,0,29946,9,-2025,-2,95,-32257,6143,4096,0
1776861432105000,0,0,31946,9,-2020,-6,100,32767,6143,4608,0
1776861432105000,0,0,-31590,9,-2021,-3,91,-32513,6399,4608,0
1776861432105000,0,0,-29590,9,-2023,-6,95,32767,6399,3840,0
1776861432105000,0,0,-27590,9,-2024,-8,102,32767,6399,3584,0
1776861432734769,-2026,-4,-156,-128,25,16,0,0,0,0,0
1776861432736769,-2023,-9,-160,-127,27,16,0,0,0,0,0
1776861432738769,-2025,-8,-154,-129,28,16,0,0,0,0,0
1776861432740769,-2023,-5,-154,-128,25,18,0,0,0,0,0
1776861432742769,-2021,2,-152,-129,24,18,0,0,0,0,0
1776861432744769,-2029,0,-155,-129,26,16,0,0,0,0,0
1776861432746769,-2019,-10,-159,-128,28,16,0,0,0,0,0
1776861432748769,-2026,-7,-157,-127,28,15,0,0,0,0,0
1776861432750769,-2025,-9,-158,-127,23,17,0,0,0,0,0
1776861432752769,-2022,-4,-161,-127,22,17,0,0,0,0,0
1776861432754769,-2021,-1,-153,-127,24,17,251,2545,5632,-520,255
1776865718749077,27,16,0,0,0,0,203,2553,6144,248,0
1776865718683525,27,16,0,0,0,0,155,2561,6656,-776,255
1776865718617999,23,16,0,0,0,0,107,2569,6144,-1288,255
1776865718749066,22,16,0,0,0,0,59,2577,5376,-1288,255
1776865718749068,22,15,0,0,0,0,11,2585,5120,-2312,255
1776865718814605,24,16,0,0,0,0,219,2592,6144,-1800,255
1776865718880130,24,16,0,0,0,0,171,2600,7680,-520,255
1776865718749060,24,15,0,0,0,0,123,2608,7680,-1288,255
1776865718749063,24,15,0,0,0,0,75,2616,7168,-1544,255
1776865718749070,25,16,0,0,0,0,27,2624,6912,-1800,255
1776865718749067,27,16,18410,10,-2022,-6,96,-32513,7423,4352,0
1776861432105000,0,0,20410,10,-2021,-6,97,-32257,6399,4352,0
1776861432105000,0,0,22410,10,-2023,-5,102,-32513,6399,3840,0
1776861432105000,0,0,24410,10,-2021,-3,94,32767,6143,4096,0
1776861432105000,0,0,26410,10,-2023,-3,104,32767,6655,3840,0
1776861432105000,0,0,28410,10,-2023,-3,98,32511,7423,3840,0
1776861432105000,0,0,30410,10,-2024,-5,101,32767,7167,4096,0
1776861432105000,0,0,32410,10,-2026,-6,101,-32513,6911,4096,0
1776861432105000,0,0,-31126,10,-2024,-1,99,-32257,6655,4352,0
1776861432105000,0,0,-29126,10,-2019,-5,97,-32513,6655,4096,0
1776861432105000,0,0,-27126,10,-2018,-1,91,-32513,6655,4608,0
1776861432800769,-2016,1,-170,-128,25,17,0,0,0,0,0
1776861432802769,-2020,3,-168,-127,24,15,0,0,0,0,0
1776861432804769,-2025,-4,-171,-128,25,14,0,0,0,0,0
1776861432806769,-2023,-3,-160,-129,23,14,0,0,0,0,0
1776861432808769,-2021,-1,-160,-129,25,14,0,0,0,0,0
1776861432810769,-2019,-1,-163,-128,23,14,0,0,0,0,0
1776861432812769,-2022,-7,-156,-128,26,15,0,0,0,0,0
1776861432814769,-2022,-4,-155,-128,28,16,0,0,0,0,0
1776861432816769,-2021,-7,-155,-128,26,17,0,0,0,0,0
1776861432818769,-2018,-8,-149,-128,25,17,0,0,0,0,0
1776861432820769,-2022,-5,-153,-127,26,16,203,2803,4864,-1032,255
1776865718814605,26,14,0,0,0,0,155,2811,5376,-1288,255
1776865718683525,25,15,0,0,0,0,107,2819,5888,-1800,255
1776865718683523,25,16,0,0,0,0,59,2827,6400,-1288,255
1776865718749063,25,15,0,0,0,0,11,2835,6656,-776,255
1776865718683529,25,15,0,0,0,0,219,2842,6144,-520,255
1776865718683539,24,16,0,0,0,0,171,2850,6400,-8,255
1776865718552468,26,16,0,0,0,0,123,2858,6656,-776,255
1776865718552462,23,15,0,0,0,0,75,2866,6144,-776,255
1776865718552460,24,16,0,0,0,0,27,2874,6400,-8,255
1776865718683534,25,17,0,0,0,0,235,2881,5376,-776,255
1776865718749067,25,17,18874,11,-2027,-3,101,-32513,6911,3840,0
1776861432105000,0,0,20874,11,-2023,-7,100,-32513,6655,4352,0
1776861432105000,0,0,22874,11,-2026,-8,100,32511,6911,4608,0
1776861432105000,0,0,24874,11,-2026,-10,94,-32257,7167,4352,0
1776861432105000,0,0,26874,11,-2020,-9,98,-32001,6655,4096,0
1776861432105000,0,0,28874,11,-2021,-5,91,-32513,6399,4096,0
1776861432105000,0,0,30874,11,-2027,-6,89,-32257,6655,3840,0
1776861432105000,0,0,-32662,11,-2023,-7,93,-32257,6911,3584,0
1776861432105000,0,0,-30662,11,-2021,-10,98,-32513,6655,4096,0
1776861432105000,0,0,-28662,11,-2023,-7,93,-32513,6655,4096,0
1776861432105000,0,0,-26662,11,-2021,-5,98,-32257,6399,4352,0
1776861432866769,-2015,-6,-162,-129,26,18,0,0,0,0,0
1776861432868769,-2017,-6,-158,-129,25,17,0,0,0,0,0
1776861432870769,-2021,-7,-166,-129,24,17,0,0,0,0,0
1776861432872769,-2019,-3,-166,-128,24,15,0,0,0,0,0
1776861432874769,-2022,1,-153,-128,23,15,0,0,0,0,0
1776861432876769,-2027,-1,-157,-128,24,15,0,0,0,0,0
1776861432878769,-2029,-8,-161,-127,26,15,0,0,0,0,0
1776861432880771,-2024,-7,-149,-128,27,15,0,0,0,0,0
1776861432882771,-2024,-5,-153,-128,26,13,0,0,0,0,0
1776861432884771,-2024,-9,-154,-129,26,14,0,0,0,0,0
1776861432886771,-2024,-4,-168,-129,23,15,154,3061,6400,-1544,255
1776865718814595,22,17,0,0,0,0,106,3069,5632,-8,255
1776865718749065,23,17,0,0,0,0,58,3077,6144,-264,255
1776865718683529,25,18,0,0,0,0,10,3085,6144,-1032,255
1776865718749064,25,18,0,0,0,0,218,3092,6656,-1032,255
1776865718749067,23,18,0,0,0,0,170,3100,6400,-776,255
1776865718749067,22,18,0,0,0,0,122,3108,5376,-2312,255
1776865718749069,25,15,0,0,0,0,73,3116,5376,-2312,255
1776865718749061,26,15,0,0,0,0,25,3124,5632,-1288,255
1776865718683533,24,16,0,0,0,0,233,3131,6400,-1800,255
1776865718618001,23,16,0,0,0,0,185,3139,6656,-1544,255
1776865718749063,23,16,19339,12,-2025,-4,93,-32001,5887,4096,0
1776861432105000,0,0,21339,12,-2022,-5,91,-32001,6655,4352,0
1776861432105000,0,0,23339,12,-2020,-8,93,-32513,6911,4096,0
1776861432105000,0,0,25339,12,-2025,-3,107,-32513,6399,4096,0
1776861432105000,0,0,27339,12,-2030,-2,101,-32513,6399,3840,0
1776861432105000,0,0,29339,12,-2026,-5,112,-32513,6399,3584,0
1776861432105000,0,0,31339,12,-2025,-6,107,-32513,6655,3584,0
1776861432105000,0,0,-32197,12,-2027,-7,101,-32513,7167,4096,0
1776861432105000,0,0,-30197,12,-2025,-3,99,-32513,6911,4096,0
1776861432105000,0,0,-28197,12,-2024,-3,91,-32513,6399,3584,0
1776861432105000,0,0,-26197,12,-2022,-10,99,-32257,6399,4096,0
1776861432983504,-2021,-2,-165,-128,27,16,0,0,0,0,0
1776861432985504,-2023,-4,-183,-129,28,15,0,0,0,0,0
1776861432987504,-2024,-2,-169,-130,27,16,0,0,0,0,0
1776861432989504,-2024,-2,-167,-127,25,14,0,0,0,0,0
1776861432991504,-2021,-9,-161,-128,23,14,0,0,0,0,0
1776861432993504,-2026,-10,-161,-129,24,18,0,0,0,0,0
1776861432995504,-2021,-7,-150,-129,26,17,0,0,0,0,0
1776861432997504,-2022,-6,-156,-129,25,17,0,0,0,0,0
1776861432999504,-2022,-1,-153,-128,26,16,0,0,0,0,0
1776861433001504,-2024,1,-150,-127,22,17,0,0,0,0,0
1776861433003504,-2024,-1,-153,-128,22,17,154,3517,6912,-264,255
1776865718618007,24,18,0,0,0,0,106,3525,6656,-1288,255
1776865718618001,26,17,0,0,0,0,58,3533,6656,-1288,255
1776865718683534,22,16,0,0,0,0,10,3541,6144,-776,255
1776865718749075,24,17,0,0,0,0,218,3548,6144,-2824,255
1776865718683531,25,16,0,0,0,0,170,3556,5632,-2568,255
1776865718749066,24,17,0,0,0,0,122,3564,6144,-2056,255
1776865718749062,23,17,0,0,0,0,74,3572,7168,-2056,255
1776865718749077,22,17,0,0,0,0,26,3580,6400,-3080,255
1776865718814607,23,17,0,0,0,0,233,3587,7680,-1544,255
1776865718683532,24,17,0,0,0,0,185,3595,7168,-520,255
1776865718617993,26,16,5000,14,-2021,-10,91,32767,7167,4352,0
1776861432105000,0,0,7000,14,-2018,-7,96,-32513,6655,4096,0
1776861432105000,0,0,9000,14,-2021,-7,92,32767,6399,3584,0
1776861432105000,0,0,11000,14,-2027,-6,99,-32513,6399,4352,0
1776861432105000,0,0,13000,14,-2028,-7,94,-32257,6655,4352,0
1776861432105000,0,0,15000,14,-2024,-12,95,-32257,6911,4096,0
1776861432105000,0,0,17000,14,-2023,-8,104,-32001,6655,4096,0
1776861432105000,0,0,19000,14,-2018,-10,112,-32001,6399,4608,0
1776861432105000,0,0,21000,14,-2024,-7,103,-32513,6655,4352,0
1776861432105000,0,0,23000,14,-2026,-3,98,32767,6655,4096,0
1776861432105000,0,0,25000,14,-2025,-4,97,-32513,7423,4608,0
1776861433049506,-2018,0,-158,-129,28,18,0,0,0,0,0
1776861433051506,-2016,-4,-166,-129,26,18,0,0,0,0,0
1776861433053506,-2018,-5,-166,-129,24,18,0,0,0,0,0
1776861433055506,-2023,-2,-173,-130,24,17,0,0,0,0,0
1776861433057506,-2019,-4,-168,-131,24,16,0,0,0,0,0
1776861433059506,-2025,0,-160,-130,27,17,0,0,0,0,0
1776861433061505,-2025,-8,-154,-129,25,16,0,0,0,0,0
1776861433063505,-2022,-8,-162,-128,23,17,0,0,0,0,0
1776861433065505,-2027,-7,-162,-127,26,17,0,0,0,0,0
1776861433067505,-2019,-9,-169,-126,26,16,0,0,0,0,0
1776861433069505,-2018,-5,-160,-126,23,17,105,3775,7936,-1032,255
1776865718683528,24,15,0,0,0,0,57,3783,7424,-776,255
1776865718683530,24,14,0,0,0,0,9,3791,6144,-1544,255
1776865718749068,22,15,0,0,0,0,217,3798,6144,-264,255
1776865718617995,22,16,0,0,0,0,169,3806,7936,-2312,255
1776865718683531,25,16,0,0,0,0,121,3814,7424,-2056,255
1776865718683529,26,15,0,0,0,0,73,3822,5888,-1544,255
1776865718749069,23,17,0,0,0,0,25,3830,5888,-2312,255
1776865718814602,23,16,0,0,0,0,233,3837,6912,-520,255
1776865718880150,24,14,0,0,0,0,185,3845,7168,1016,0
1776865718749081,24,14,0,0,0,0,137,3853,6400,-2056,255
1776865718683534,25,15,5464,15,-2022,-11,95,-32257,6655,4096,0
1776861432105000,0,0,7464,15,-2024,-7,87,-32513,6911,4096,0
1776861432105000,0,0,9464,15,-2019,-6,95,32511,6399,4352,0
1776861432105000,0,0,11464,15,-2021,-6,102,32767,5887,3840,0
1776861432105000,0,0,13464,15,-2022,-1,97,32767,6655,4096,0
1776861432105000,0,0,15464,15,-2026,-3,93,32767,6911,4096,0
1776861432105000,0,0,17465,15,-2025,1,105,32767,6911,4096,0
1776861432105000,0,0,19465,15,-2020,-3,103,32767,5887,4096,0
1776861432105000,0,0,21465,15,-2023,-2,100,32767,5375,4096,0
1776861432105000,0,0,23465,15,-2026,-2,107,32511,6143,4096,0
1776861432105000,0,0,25465,15,-2025,-7,100,32511,7167,4352,0
1776861433115504,-2021,-7,-173,-129,28,16,0,0,0,0,0
1776861433117504,-2026,-3,-171,-127,26,15,0,0,0,0,0
1776861433119504,-2027,-6,-162,-127,25,17,0,0,0,0,0
1776861433121504,-2029,-6,-156,-127,25,17,0,0,0,0,0
1776861433123504,-2020,-6,-154,-127,26,15,0,0,0,0,0
1776861433125504,-2019,-3,-149,-128,25,15,0,0,0,0,0
1776861433127504,-2023,-6,-159,-126,23,16,0,0,0,0,0
1776861433129504,-2024,-3,-159,-127,23,15,0,0,0,0,0
1776861433131504,-2023,-5,-155,-127,25,15,0,0,0,0,0
1776861433133504,-2025,-6,-161,-127,25,15,0,0,0,0,0
1776861433135504,-2024,-7,-151,-128,26,16,58,4033,5888,-1288,255
1776865718749068,28,16,0,0,0,0,10,4041,5632,-776,255
1776865718683521,26,18,0,0,0,0,218,4048,5120,-1288,255
1776865718683522,25,17,0,0,0,0,170,4056,6144,-1544,255
1776865718683523,25,16,0,0,0,0,122,4064,6400,-520,255
1776865718749062,24,17,0,0,0,0,74,4072,6912,-2056,255
1776865718617995,26,17,0,0,0,0,26,4080,7168,-776,255
1776865718683534,26,15,0,0,0,0,234,4087,8192,-520,255
1776865718683530,25,15,0,0,0,0,186,4095,6912,-1288,255
1776865718617990,26,15,0,0,0,0,138,4103,6400,-264,255
1776865718749072,26,15,0,0,0,0,90,4111,8192,-776,255
1776865718814612,28,17,5929,16,-2022,-3,102,32511,6911,4352,0
1776861432105000,0,0,7929,16,-2020,-5,103,-32513,6911,4096,0
1776861432105000,0,0,9929,16,-2020,-3,96,-32257,7167,3840,0
1776861432105000,0,0,11929,16,-2023,-4,91,-32513,7167,3840,0
1776861432105000,0,0,13929,16,-2023,-1,99,-32257,6399,4096,0
1776861432105000,0,0,15929,16,-2024,-5,99,-32513,5887,4352,0
1776861432105000,0,0,17929,16,-2025,-6,101,32767,5887,4608,0
1776861432105000,0,0,19929,16,-2022,-7,102,32767,6399,4864,0
1776861432105000,0,0,21929,16,-2024,-8,105,-32001,6655,4608,0
1776861432105000,0,0,23929,16,-2021,-8,97,-32001,6399,4864,0
1776861432105000,0,0,25929,16,-2022,-8,110,-32513,6143,4352,0
1776861433181504,-2026,-7,-147,-128,25,17,0,0,0,0,0
1776861433183504,-2018,-4,-144,-127,26,18,0,0,0,0,0
1776861433185504,-2018,-6,-152,-128,25,17,0,0,0,0,0
1776861433187504,-2025,-8,-153,-130,25,17,0,0,0,0,0
1776861433189504,-2031,-7,-153,-129,24,15,0,0,0,0,0
1776861433191504,-2023,-1,-156,-129,25,15,0,0,0,0,0
1776861433193504,-2022,-3,-162,-127,27,16,0,0,0,0,0
1776861433195504,-2018,1,-163,-128,26,16,0,0,0,0,0
1776861433197504,-2024,-2,-155,-129,25,15,0,0,0,0,0
1776861433199504,-2026,-5,-159,-127,24,15,0,0,0,0,0
1776861433201504,-2025,-6,-157,-127,24,15,10,4291,5120,-1288,255
1776865718683529,26,15,0,0,0,0,218,4298,6144,-1544,255
1776865718749066,26,16,0,0,0,0,170,4306,6656,-1544,255
1776865718749066,24,15,0,0,0,0,122,4314,6656,-2056,255
1776865718749067,23,15,0,0,0,0,74,4322,5120,-2312,255
1776865718683537,24,16,0,0,0,0,26,4330,5376,-2568,255
1776865718749063,26,17,0,0,0,0,234,4337,5120,-1288,255
1776865718814594,27,16,0,0,0,0,186,4345,6144,-2312,255
1776865718749069,27,17,0,0,0,0,138,4353,5888,-2056,255
1776865718749075,26,16,0,0,0,0,90,4361,5888,-2056,255
1776865718814605,25,14,0,0,0,0,42,4369,7168,-2056,255
1776865718880141,25,17,6393,17,-2021,-4,105,-32257,6655,4608,0
1776861432105000,0,0,8393,17,-2020,-2,97,32767,6399,4096,0
1776861432105000,0,0,10393,17,-2018,-11,97,32767,6143,3840,0
1776861432105000,0,0,12393,17,-2025,-8,102,32767,6399,4352,0
1776861432105000,0,0,14393,17,-2026,-8,106,32767,6655,4096,0
1776861432105000,0,0,16393,17,-2022,-1,97,-32513,7167,4352,0
1776861432105000,0,0,18393,17,-2021,-4,83,32767,6655,4096,0
1776861432105000,0,0,20393,17,-2021,-8,90,-32513,6399,4096,0
1776861432105000,0,0,22393,17,-2022,1,106,32767,6143,4096,0
1776861432105000,0,0,24393,17,-2027,2,100,-32257,6143,4096,0
1776861432105000,0,0,26393,17,-2022,-3,98,-32513,7167,4096,0
1776861433247504,-2021,-2,-157,-129,26,16,0,0,0,0,0
1776861433249504,-2020,-6,-156,-128,25,17,0,0,0,0,0
1776861433251504,-2021,-5,-165,-127,24,17,0,0,0,0,0
1776861433253504,-2026,-6,-164,-129,23,18,0,0,0,0,0
1776861433255504,-2025,-5,-164,-129,23,16,0,0,0,0,0
1776861433257504,-2027,-8,-160,-128,23,15,0,0,0,0,0
1776861433259504,-2023,-6,-158,-131,25,14,0,0,0,0,0
1776861433261504,-2023,-5,-161,-128,24,16,0,0,0,0,0
1776861433263504,-2024,-9,-164,-128,26,17,0,0,0,0,0
1776861433265504,-2020,-4,-170,-129,26,15,0,0,0,0,0
1776861433267504,-2024,-4,-169,-129,25,15,218,4548,4864,-520,255
1776865718683533,23,15,0,0,0,0,170,4556,4096,-776,255
1776865718749066,26,16,0,0,0,0,122,4564,4864,-776,255
1776865718749074,27,17,0,0,0,0,74,4572,5888,-264,255
1776865718749073,25,17,0,0,0,0,26,4580,6912,-520,255
1776865718749070,24,16,0,0,0,0,234,4587,7168,-1800,255
1776865718749075,23,16,0,0,0,0,186,4595,6144,-1288,255
1776865718749067,24,15,0,0,0,0,138,4603,6656,-520,255
1776865718749073,27,15,0,0,0,0,90,4611,7168,-1800,255
1776865718749067,26,15,0,0,0,0,42,4619,5632,-776,255
1776865718814595,24,15,0,0,0,0,250,4626,6912,-1544,255
1776865718814595,25,15,6857,18,-2021,-10,97,-32513,7167,3584,0
1776861432105000,0,0,8857,18,-2022,-10,97,-32257,7423,3840,0
1776861432105000,0,0,10857,18,-2022,-8,101,-32257,6911,4096,0
1776861432105000,0,0,12857,18,-2025,-9,97,-32513,6143,4096,0
1776861432105000,0,0,14857,18,-2020,-11,90,32767,5887,4096,0
1776861432105000,0,0,16857,18,-2021,-8,91,-32513,6655,4096,0
1776861432105000,0,0,18857,18,-2023,-2,108,32767,6655,4352,0
1776861432105000,0,0,20857,18,-2024,-3,106,32767,5887,4608,0
1776861432105000,0,0,22857,18,-2023,-8,100,32767,6143,4096,0
1776861432105000,0,0,24857,18,-2017,-6,101,-32513,6655,4352,0
1776861432105000,0,0,26857,18,-2024,-7,100,-32257,6143,3840,0
1776861433313504,-2023,-7,-152,-128,23,15,0,0,0,0,0
1776861433315504,-2027,-9,-161,-127,24,16,0,0,0,0,0
1776861433317504,-2024,-6,-173,-128,24,16,0,0,0,0,0
1776861433319504,-2026,-6,-167,-128,25,16,0,0,0,0,0
1776861433321504,-2030,-10,-174,-128,22,15,0,0,0,0,0
1776861433323504,-2026,-9,-157,-127,24,14,0,0,0,0,0
1776861433325504,-2025,-5,-156,-128,23,16,0,0,0,0,0
1776861433327504,-2024,-7,-163,-129,24,17,0,0,0,0,0
1776861433329504,-2026,-4,-153,-129,28,16,0,0,0,0,0
1776861433331504,-2030,-3,-156,-127,27,17,0,0,0,0,0
1776861433333504,-2027,-7,-162,-129,26,15,124,4994,5888,-520,255
1776865718749069,28,14,0,0,0,0,78,5002,6656,-264,255
1776865718617980,27,14,0,0,0,0,29,5010,6656,-520,255
1776865718749064,27,16,0,0,0,0,237,5017,5632,-1032,255
1776865718749069,25,16,0,0,0,0,189,5025,5632,-1032,255
1776865718749064,26,17,0,0,0,0,141,5033,5632,248,0
1776865718814598,25,15,0,0,0,0,93,5041,6912,-1032,255
1776865718814598,27,14,0,0,0,0,45,5049,6656,-1544,255
1776865718683534,25,15,0,0,0,0,253,5056,6144,-8,255
1776865718683528,24,16,0,0,0,0,205,5064,6144,-264,255
1776865718683541,24,15,0,0,0,0,157,5072,6400,-1032,255
1776865718749067,25,15,-10132,19,-2021,-7,102,-32513,6911,3840,0
1776861432105000,0,0,-8132,19,-2022,-6,104,-32513,6399,4096,0
1776861432105000,0,0,-6132,19,-2028,-3,98,-32513,6655,4352,0
1776861432105000,0,0,-4132,19,-2030,1,97,32767,7423,4352,0
1776861432105000,0,0,-2132,19,-2026,0,85,32767,7423,4096,0
1776861432105000,0,0,-132,19,-2025,-4,87,-32513,7167,4096,0
1776861432105000,0,0,1868,20,-2025,-8,92,-32513,6399,4352,0
1776861432105000,0,0,3868,20,-2026,-3,106,32767,5887,3840,0
1776861432105000,0,0,5868,20,-2022,-6,103,32767,5631,3584,0
1776861432105000,0,0,7868,20,-2023,-6,104,32767,6399,3840,0
1776861432105000,0,0,9868,20,-2020,-5,106,-32513,7167,4096,0
1776861433427590,-2019,-6,-154,-126,24,16,0,0,0,0,0
1776861433429590,-2021,-6,-160,-128,24,16,0,0,0,0,0
1776861433431590,-2029,-7,-163,-128,26,16,0,0,0,0,0
1776861433433590,-2028,-5,-159,-127,27,16,0,0,0,0,0
1776861433435590,-2027,-5,-158,-129,27,16,0,0,0,0,0
1776861433437590,-2025,-5,-151,-128,25,16,0,0,0,0,0
1776861433439590,-2030,-4,-151,-127,27,15,0,0,0,0,0
1776861433441590,-2026,-7,-160,-128,28,15,0,0,0,0,0
1776861433443590,-2029,-7,-171,-130,26,16,0,0,0,0,0
1776861433445590,-2020,-8,-170,-128,24,16,0,0,0,0,0
1776861433447590,-2025,-5,-159,-126,22,14,77,5252,6912,-2056,255
1776865718749064,21,15,0,0,0,0,29,5260,7936,-1288,255
1776865718749059,25,14,0,0,0,0,237,5267,6400,-1288,255
1776865718683532,24,15,0,0,0,0,189,5275,5888,-2056,255
1776865718749067,23,14,0,0,0,0,141,5283,7680,-776,255
1776865718880146,24,14,0,0,0,0,93,5291,6912,-520,255
1776865718683542,24,16,0,0,0,0,45,5299,4608,-520,255
1776865718749074,24,17,0,0,0,0,253,5306,4864,-520,255
1776865718749073,24,16,0,0,0,0,205,5314,5120,-1544,255
1776865718683519,26,17,0,0,0,0,157,5322,5632,-520,255
1776865718749060,27,18,0,0,0,0,109,5330,5888,-1544,255
1776865718749054,27,19,-9667,20,-2022,-6,92,32767,6911,4864,0
1776861432105000,0,0,-7667,20,-2019,-5,101,-32513,6655,4352,0
1776861432105000,0,0,-5667,20,-2022,0,97,32767,6399,4096,0
1776861432105000,0,0,-3668,20,-2017,-1,103,-32257,5887,4096,0
1776861432105000,0,0,-1668,20,-2020,-2,101,-32257,6655,4352,0
1776861432105000,0,0,332,21,-2021,-3,99,-32257,7167,4096,0
1776861432105000,0,0,2332,21,-2018,-3,109,-32257,7167,4352,0
1776861432105000,0,0,4332,21,-2019,-2,98,32767,6655,4352,0
1776861432105000,0,0,6332,21,-2021,1,93,-32257,6143,3840,0
1776861432105000,0,0,8332,21,-2023,-3,98,-32001,6143,4096,0
1776861432105000,0,0,10332,21,-2023,1,90,-32001,6655,4352,0
1776861433493590,-2025,-1,-170,-128,28,16,0,0,0,0,0
1776861433495590,-2025,-8,-161,-129,27,16,0,0,0,0,0
1776861433497590,-2020,-7,-161,-129,24,16,0,0,0,0,0
1776861433499590,-2014,-6,-150,-129,23,16,0,0,0,0,0
1776861433501590,-2018,-2,-155,-127,23,16,0,0,0,0,0
1776861433503590,-2022,1,-160,-126,24,17,0,0,0,0,0
1776861433505590,-2024,0,-167,-126,24,18,0,0,0,0,0
1776861433507590,-2023,-2,-167,-127,24,17,0,0,0,0,0
1776861433509590,-2020,-6,-178,-128,25,17,0,0,0,0,0
1776861433511590,-2020,-5,-174,-128,25,16,0,0,0,0,0
1776861433513590,-2021,-3,-170,-129,25,18,29,5510,6400,-1288,255
1776865718749056,25,18,0,0,0,0,237,5517,6912,-1544,255
1776865718683525,25,14,0,0,0,0,189,5525,8192,-1544,255
1776865718814599,25,16,0,0,0,0,141,5533,6144,-1288,255
1776865718880142,24,17,0,0,0,0,93,5541,4864,-776,255
1776865718814606,25,17,0,0,0,0,45,5549,5120,-264,255
1776865718749067,26,17,0,0,0,0,253,5556,6400,-264,255
1776865718814608,26,16,0,0,0,0,205,5564,7168,-1288,255
1776865718814602,25,18,0,0,0,0,157,5572,8192,-2568,255
1776865718749061,26,16,0,0,0,0,109,5580,7680,-2824,255
1776865718749069,26,16,0,0,0,0,60,5588,6400,-1544,255
1776865718683528,26,16,-9204,21,-2022,-2,94,32767,6911,4096,0
1776861432105000,0,0,-7204,21,-2020,-4,97,-32513,6655,4096,0
1776861432105000,0,0,-5204,21,-2023,1,86,-32257,6655,4352,0
1776861432105000,0,0,-3204,21,-2029,-4,92,-32513,6655,4352,0
1776861432105000,0,0,-1204,21,-2025,-5,101,-32513,6655,4096,0
1776861432105000,0,0,798,22,-2024,-7,119,-32513,6911,3840,0
1776861432105000,0,0,2798,22,-2022,-7,100,-32257,7167,3840,0
1776861432105000,0,0,4798,22,-2019,-8,100,-32257,7679,4096,0
1776861432105000,0,0,6798,22,-2019,-5,95,32511,6655,4096,0
1776861432105000,0,0,8798,22,-2019,-3,98,32511,6143,4096,0
1776861432105000,0,0,10798,22,-2017,-6,100,-32513,6399,3840,0
1776861433559589,-2020,-6,-161,-127,24,15,0,0,0,0,0
1776861433561589,-2021,-9,-164,-126,24,16,0,0,0,0,0
1776861433563589,-2019,-11,-155,-127,25,15,0,0,0,0,0
1776861433565589,-2021,-10,-159,-129,24,14,0,0,0,0,0
1776861433567589,-2025,-9,-160,-130,22,13,0,0,0,0,0
1776861433569589,-2023,-7,-159,-130,25,14,0,0,0,0,0
1776861433571589,-2017,-8,-161,-129,26,15,0,0,0,0,0
1776861433573589,-2028,-6,-153,-129,25,16,0,0,0,0,0
1776861433575589,-2026,-5,-149,-128,22,16,0,0,0,0,0
1776861433577589,-2029,-3,-155,-128,24,18,0,0,0,0,0
1776861433579589,-2024,-6,-161,-128,28,18,236,5767,6912,-1544,255
1776865718683536,29,18,0,0,0,0,188,5775,5632,-520,255
1776865718683528,27,18,0,0,0,0,140,5783,5888,-520,255
1776865718749070,24,18,0,0,0,0,92,5791,4096,504,0
1776865718749064,25,18,0,0,0,0,44,5799,5120,-8,255
1776865718552462,27,17,0,0,0,0,252,5806,5888,248,0
1776865718683530,28,17,0,0,0,0,204,5814,4864,-1544,255
1776865718683523,28,18,0,0,0,0,156,5822,4608,-1288,255
1776865718683541,26,18,0,0,0,0,108,5830,4864,-2312,255
1776865718749073,23,16,0,0,0,0,60,5838,5376,-1544,255
1776865718749065,23,15,0,0,0,0,12,5846,5632,-8,255
1776865718617992,28,16,-8738,22,-2024,-9,102,32767,6655,4096,0
1776861432105000,0,0,-6738,22,-2024,-6,98,-32513,6655,4352,0
1776861432105000,0,0,-4738,22,-2017,-8,96,32767,6655,4096,0
1776861432105000,0,0,-2738,22,-2018,-1,89,32767,5887,4352,0
1776861432105000,0,0,-738,22,-2023,-2,96,-32257,5887,4096,0
1776861432105000,0,0,1262,23,-2027,0,99,-32257,6143,3840,0
1776861432105000,0,0,3262,23,-2030,-2,102,-32001,6399,4352,0
1776861432105000,0,0,5262,23,-2029,-7,95,-32513,6399,4096,0
1776861432105000,0,0,7262,23,-2025,-8,98,32767,6655,4096,0
1776861432105000,0,0,9262,23,-2024,-9,102,32767,6911,4096,0
1776861432105000,0,0,11261,23,-2020,-4,98,-32513,6911,4096,0
1776861433625588,-2023,-7,-147,-129,24,17,0,0,0,0,0
1776861433627588,-2028,-5,-151,-129,24,18,0,0,0,0,0
1776861433629588,-2029,-8,-156,-129,23,18,0,0,0,0,0
1776861433631588,-2027,-12,-156,-128,24,18,0,0,0,0,0
1776861433633591,-2027,-10,-154,-127,27,17,0,0,0,0,0
1776861433635588,-2023,-8,-150,-128,26,18,0,0,0,0,0
1776861433637588,-2022,-9,-157,-129,23,18,0,0,0,0,0
1776861433639588,-2022,-8,-166,-128,22,16,0,0,0,0,0
1776861433641588,-2023,-6,-173,-128,25,16,0,0,0,0,0
1776861433643588,-2020,-7,-158,-128,25,18,0,0,0,0,0
1776861433645588,-2025,-6,-163,-129,23,17,190,6025,5120,-264,255
1776865718617994,22,17,0,0,0,0,142,6033,5888,504,0
1776865718749071,23,18,0,0,0,0,94,6041,6656,-776,255
1776865718814605,24,17,0,0,0,0,46,6049,6400,-776,255
1776865718814606,22,18,0,0,0,0,254,6056,6144,504,0
1776865718814601,21,18,0,0,0,0,206,6064,5632,-520,255
1776865718683535,23,16,0,0,0,0,158,6072,6400,-1288,255
1776865718683529,25,15,0,0,0,0,110,6080,6400,-1544,255
1776865718683530,25,15,0,0,0,0,62,6088,5120,-2312,255
1776865718749073,27,16,0,0,0,0,14,6096,4864,-2056,255
1776865718683536,26,15,0,0,0,0,222,6103,5888,-2056,255
1776865718617994,25,15,-8275,23,-2025,-5,100,-32513,6399,4096,0
1776861432105000,0,0,-6275,23,-2025,-9,93,-32001,6911,4096,0
1776861432105000,0,0,-4275,23,-2020,-10,91,-32001,6655,4096,0
1776861432105000,0,0,-2275,23,-2024,-1,92,-32257,6399,4096,0
1776861432105000,0,0,-275,23,-2024,0,100,-32257,6655,4096,0
1776861432105000,0,0,1725,24,-2021,2,99,32767,6655,4096,0
1776861432105000,0,0,3725,24,-2024,-3,98,32511,6911,4352,0
1776861432105000,0,0,5725,24,-2024,-1,93,-32513,7167,4096,0
1776861432105000,0,0,7725,24,-2024,-5,87,-32513,6911,4352,0
1776861432105000,0,0,9725,24,-2021,-3,97,-32257,6143,4608,0
1776861432105000,0,0,11725,24,-2022,-1,108,-32513,6655,3584,0
1776861433691588,-2026,-7,-159,-128,27,14,0,0,0,0,0
1776861433693588,-2021,-7,-154,-128,26,14,0,0,0,0,0
1776861433695588,-2016,-2,-155,-129,26,17,0,0,0,0,0
1776861433697588,-2023,-8,-149,-129,24,16,0,0,0,0,0
1776861433699588,-2018,-7,-150,-129,21,15,0,0,0,0,0
1776861433701588,-2022,-7,-156,-129,23,18,0,0,0,0,0
1776861433703588,-2021,-2,-155,-127,26,18,0,0,0,0,0
1776861433705588,-2028,-1,-155,-128,25,18,0,0,0,0,0
1776861433707588,-2027,-7,-159,-127,25,18,0,0,0,0,0
1776861433709588,-2026,-2,-170,-128,26,19,0,0,0,0,0
1776861433711588,-2029,-2,-165,-128,25,18,142,6283,4864,504,0
1776865718749065,26,15,0,0,0,0,94,6291,5120,-2824,255
1776865718814593,26,13,0,0,0,0,46,6299,5120,-2056,255
1776865718749065,26,15,0,0,0,0,254,6306,5120,-2312,255
1776865718617997,26,15,0,0,0,0,206,6314,6144,-2056,255
1776865718683526,24,15,0,0,0,0,158,6322,5632,-776,255
1776865718617987,22,16,0,0,0,0,110,6330,5888,-264,255
1776865718617997,23,16,0,0,0,0,62,6338,6400,-1288,255
1776865718749058,26,17,0,0,0,0,14,6346,8192,-1032,255
1776865718683521,26,17,0,0,0,0,222,6353,7168,-1032,255
1776865718683523,26,16,0,0,0,0,174,6361,6912,-1288,255
1776865718683525,26,16,-25157,25,-2021,-1,97,32767,6655,4608,0
1776861432105000,0,0,-23157,25,-2021,-2,98,-32513,6655,4352,0
1776861432105000,0,0,-21157,25,-2022,0,100,-32257,6399,4352,0
1776861432105000,0,0,-19157,25,-2027,-6,93,-32513,6655,4608,0
1776861432105000,0,0,-17157,25,-2028,-1,99,-32513,6655,4352,0
1776861432105000,0,0,-15157,25,-2030,-4,104,-32257,6655,4608,0
1776861432105000,0,0,-13157,25,-2027,-4,99,32511,6655,4608,0
1776861432105000,0,0,-11157,25,-2026,-1,96,32255,6911,4608,0
1776861432105000,0,0,-9157,25,-2029,1,99,32767,6911,4352,0
1776861432105000,0,0,-7157,25,-2027,-3,110,32767,6143,4352,0
1776861432105000,0,0,-5157,25,-2028,-7,106,-32513,5631,4608,0
1776861433805781,-2024,-3,-150,-128,22,17,0,0,0,0,0
1776861433807781,-2022,-7,-159,-129,23,17,0,0,0,0,0
1776861433809781,-2024,-5,-168,-128,24,17,0,0,0,0,0
1776861433811781,-2026,-5,-156,-128,23,17,0,0,0,0,0
1776861433813781,-2029,-10,-156,-128,24,16,0,0,0,0,0
1776861433815781,-2030,-8,-150,-126,24,15,0,0,0,0,0
1776861433817781,-2026,-6,-157,-130,23,18,0,0,0,0,0
1776861433819781,-2023,-4,-149,-131,25,17,0,0,0,0,0
1776861433821781,-2026,-6,-158,-130,25,16,0,0,0,0,0
1776861433823781,-2027,-5,-158,-129,24,18,0,0,0,0,0
1776861433825781,-2025,0,-150,-129,23,18,156,6729,6400,-1544,255
1776865718683533,26,17,0,0,0,0,108,6737,7424,-1800,255
1776865718617995,24,17,0,0,0,0,60,6745,6400,-2056,255
1776865718814606,26,17,0,0,0,0,12,6753,5376,-1288,255
1776865718814600,27,17,0,0,0,0,220,6760,6400,-1288,255
1776865718880131,25,16,0,0,0,0,172,6768,5888,-1288,255
1776865718814600,25,15,0,0,0,0,124,6776,7168,-1288,255
1776865718617994,26,16,0,0,0,0,76,6784,7424,-2312,255
1776865718617990,26,16,0,0,0,0,28,6792,7168,-1800,255
1776865718814598,27,16,0,0,0,0,236,6799,7936,-520,255
1776865718749067,25,16,0,0,0,0,188,6807,6912,1016,0
1776865718683531,26,17,-24693,26,-2017,-4,98,-32513,6911,4096,0
1776861432105000,0,0,-22693,26,-2022,-4,108,-32513,6655,4352,0
1776861432105000,0,0,-20693,26,-2015,-2,98,-32513,6655,4352,0
1776861432105000,0,0,-18693,26,-2019,-4,96,-32513,6399,4352,0
1776861432105000,0,0,-16693,26,-2020,-3,102,-32513,6655,4352,0
1776861432105000,0,0,-14693,26,-2019,-2,96,-32001,7167,4096,0
1776861432105000,0,0,-12693,26,-2016,-7,93,-32257,7167,3840,0
1776861432105000,0,0,-10693,26,-2023,-6,97,-32513,6143,3840,0
1776861432105000,0,0,-8693,26,-2024,-5,104,-32513,6655,4096,0
1776861432105000,0,0,-6693,26,-2020,-7,109,32767,7167,4352,0
1776861432105000,0,0,-4693,26,-2022,-7,105,-32513,6911,4096,0
1776861433871779,-2020,-4,-148,-128,26,16,0,0,0,0,0
1776861433873779,-2016,-4,-151,-129,23,16,0,0,0,0,0
1776861433875779,-2022,-5,-159,-127,24,15,0,0,0,0,0
1776861433877779,-2022,-5,-174,-129,25,17,0,0,0,0,0
1776861433879779,-2018,-5,-169,-128,25,18,0,0,0,0,0
1776861433881779,-2019,-5,-162,-127,25,16,0,0,0,0,0
1776861433883779,-2020,-6,-159,-126,25,16,0,0,0,0,0
1776861433885779,-2024,-5,-150,-126,26,16,0,0,0,0,0
1776861433887779,-2019,-6,-156,-129,26,15,0,0,0,0,0
1776861433889779,-2023,-11,-162,-131,27,16,0,0,0,0,0
1776861433891779,-2019,-13,-159,-129,27,18,107,6987,6912,-1288,255
1776865718749074,27,16,0,0,0,0,59,6995,6656,-1544,255
1776865718749069,24,17,0,0,0,0,11,7003,5120,-520,255
1776865718683538,26,18,0,0,0,0,219,7010,5632,-776,255
1776865718749074,27,17,0,0,0,0,171,7018,7424,-520,255
1776865718683529,27,16,0,0,0,0,123,7026,6400,-2312,255
1776865718617990,28,14,0,0,0,0,75,7034,4352,-2824,255
1776865718749058,24,15,0,0,0,0,27,7042,4352,-1800,255
1776865718749063,24,16,0,0,0,0,235,7049,4864,-776,255
1776865718880137,24,16,0,0,0,0,187,7057,6912,-520,255
1776865718880131,24,16,0,0,0,0,139,7065,7936,-1544,255
1776865718814603,24,17,-24229,27,-2023,-2,103,-32513,6399,4608,0
1776861432105000,0,0,-22229,27,-2021,-7,102,32767,6655,4608,0
1776861432105000,0,0,-20229,27,-2019,-10,90,-32513,6399,4352,0
1776861432105000,0,0,-18229,27,-2029,-7,98,-32257,5887,3584,0
1776861432105000,0,0,-16229,27,-2028,-9,94,-32257,6655,3328,0
1776861432105000,0,0,-14229,27,-2024,-6,98,-32513,6655,3840,0
1776861432105000,0,0,-12229,27,-2019,-7,91,-32513,7423,4352,0
1776861432105000,0,0,-10229,27,-2022,-4,94,32767,7679,4608,0
1776861432105000,0,0,-8229,27,-2028,-6,92,32767,6399,4096,0
1776861432105000,0,0,-6229,27,-2029,-5,92,-32513,6399,4096,0
1776861432105000,0,0,-4229,27,-2033,-6,97,-32257,6399,3840,0
1776861433937781,-2031,-3,-162,-127,26,16,0,0,0,0,0
1776861433939781,-2029,-2,-160,-127,27,16,0,0,0,0,0
1776861433941781,-2022,-1,-159,-128,24,16,0,0,0,0,0
1776861433943781,-2023,-4,-157,-130,22,16,0,0,0,0,0
1776861433945781,-2026,-3,-148,-129,23,16,0,0,0,0,0
1776861433947781,-2024,-8,-161,-128,26,18,0,0,0,0,0
1776861433949781,-2023,-7,-172,-129,25,17,0,0,0,0,0
1776861433951781,-2023,-7,-164,-128,25,17,0,0,0,0,0
1776861433953781,-2025,-7,-170,-129,24,17,0,0,0,0,0
1776861433955781,-2023,-6,-168,-129,24,17,0,0,0,0,0
1776861433957781,-2021,-6,-169,-128,25,16,60,7245,6400,760,0
1776865718749066,25,17,0,0,0,0,12,7253,5888,-776,255
1776865718683532,23,15,0,0,0,0,220,7260,6400,-1544,255
1776865718683532,23,15,0,0,0,0,172,7268,6144,-1288,255
1776865718683532,26,17,0,0,0,0,124,7276,7424,-264,255
1776865718617997,26,17,0,0,0,0,76,7284,6656,504,0
1776865718749076,26,16,0,0,0,0,28,7292,6400,-520,255
1776865718749073,27,16,0,0,0,0,236,7299,6656,-1288,255
1776865718683534,25,17,0,0,0,0,188,7307,7168,-2056,255
1776865718618000,23,18,0,0,0,0,140,7315,5632,-1544,255
1776865718617992,24,19,0,0,0,0,92,7323,5888,-520,255
1776865718683537,25,16,-23765,28,-2021,-1,96,-32001,6655,3840,0
1776861432105000,0,0,-21765,28,-2021,0,91,-32001,6911,4096,0
1776861432105000,0,0,-19765,28,-2024,-1,98,-32257,6655,4096,0
1776861432105000,0,0,-17765,28,-2024,-4,94,-32513,6399,4352,0
1776861432105000,0,0,-15765,28,-2019,-9,93,32767,6399,4096,0
1776861432105000,0,0,-13765,28,-2023,-10,100,32767,6399,3584,0
1776861432105000,0,0,-11765,28,-2022,-6,91,-32257,6399,3584,0
1776861432105000,0,0,-9765,28,-2027,0,95,-32257,6655,4096,0
1776861432105000,0,0,-7762,28,-2024,-1,101,-32257,7167,4352,0
1776861432105000,0,0,-5763,28,-2013,-5,98,-32001,6655,4608,0
1776861432105000,0,0,-3763,28,-2019,-3,99,-32257,6399,4608,0
1776861434003780,-2021,-5,-157,-127,24,16,0,0,0,0,0
1776861434005780,-2027,-7,-163,-128,25,17,0,0,0,0,0
1776861434007780,-2026,-6,-163,-127,26,15,0,0,0,0,0
1776861434009780,-2023,-8,-160,-128,25,16,0,0,0,0,0
1776861434011780,-2019,-8,-151,-128,25,16,0,0,0,0,0
1776861434013780,-2017,-5,-162,-128,27,16,0,0,0,0,0
1776861434015780,-2024,-7,-157,-129,26,17,0,0,0,0,0
1776861434017780,-2023,-12,-161,-127,26,17,0,0,0,0,0
1776861434019780,-2027,-1,-151,-128,27,17,0,0,0,0,0
1776861434021780,-2025,0,-154,-128,26,16,0,0,0,0,0
1776861434023780,-2028,-1,-164,-127,26,17,11,7503,5376,-2824,255
1776865718814590,26,17,0,0,0,0,219,7510,6656,-3080,255
1776865718749064,27,18,0,0,0,0,171,7518,7168,-2568,255
1776865718880137,25,18,0,0,0,0,123,7526,6912,-1288,255
1776865718683525,24,18,0,0,0,0,75,7534,6400,-264,255
1776865718749059,22,16,0,0,0,0,27,7542,6144,-520,255
1776865718814608,22,17,0,0,0,0,235,7549,7424,-1032,255
1776865718814610,25,17,0,0,0,0,187,7557,6400,504,0
1776865718814606,27,17,0,0,0,0,139,7565,7680,248,0
1776865718814593,25,17,0,0,0,0,91,7573,6656,504,0
1776865718749065,23,15,0,0,0,0,43,7581,5120,1016,0
1776865718617996,22,16,-23299,29,-2029,-2,97,32767,6143,4096,0
1776861432105000,0,0,-21299,29,-2021,-4,102,32767,6655,4352,0
1776861432105000,0,0,-19299,29,-2019,-5,115,-32513,6911,4096,0
1776861432105000,0,0,-17299,29,-2023,-4,101,32255,6399,4352,0
1776861432105000,0,0,-15299,29,-2027,-7,100,32255,6399,4352,0
1776861432105000,0,0,-13299,29,-2022,-5,109,-32513,6655,4352,0
1776861432105000,0,0,-11299,29,-2022,-5,106,-32513,6655,4608,0
1776861432105000,0,0,-9299,29,-2021,-7,99,-32513,6655,4352,0
1776861432105000,0,0,-7299,29,-2019,-10,95,-32257,6399,4096,0
1776861432105000,0,0,-5299,29,-2026,-6,104,-32513,6655,4352,0
1776861432105000,0,0,-3299,29,-2029,-4,103,-32257,6143,4096,0
1776861434069780,-2025,-4,-157,-129,23,17,0,0,0,0,0
1776861434071780,-2021,-6,-164,-128,25,17,0,0,0,0,0
1776861434073780,-2019,-5,-159,-127,26,16,0,0,0,0,0
1776861434075780,-2025,-7,-164,-129,25,16,0,0,0,0,0
1776861434077780,-2023,-4,-158,-129,26,14,0,0,0,0,0
1776861434079780,-2021,-5,-159,-128,24,16,0,0,0,0,0
1776861434081780,-2024,-6,-164,-128,22,15,0,0,0,0,0
1776861434083780,-2021,-11,-170,-128,23,16,0,0,0,0,0
1776861434085780,-2021,-12,-167,-128,23,15,0,0,0,0,0
1776861434087780,-2025,-8,-158,-129,25,14,0,0,0,0,0
1776861434089780,-2025,-5,-153,-128,26,16,219,7760,5120,1272,0
1776865718880137,25,17,0,0,0,0,171,7768,6400,-264,255
1776865718880139,25,16,0,0,0,0,123,7776,5632,-1544,255
1776865718749064,28,16,0,0,0,0,75,7784,6912,-1032,255
1776865718617983,27,15,0,0,0,0,27,7792,6656,-1288,255
1776865718749053,26,16,0,0,0,0,235,7799,5888,-8,255
1776865718814601,22,14,0,0,0,0,187,7807,6656,-8,255
1776865718749077,22,15,0,0,0,0,139,7815,6656,-1032,255
1776865718683532,25,16,0,0,0,0,91,7823,4096,-1544,255
1776865718749072,25,17,0,0,0,0,43,7831,5888,-1544,255
1776865718749062,24,16,0,0,0,0,251,7838,5632,-1544,255
1776865718749068,24,17,-22835,30,-2025,-4,93,-32513,6143,4096,0
1776861432105000,0,0,-20835,30,-2030,-7,97,-32513,6655,4352,0
1776861432105000,0,0,-18835,30,-2027,-4,92,-32001,7423,4096,0
1776861432105000,0,0,-16835,30,-2028,-7,88,-32001,6911,3840,0
1776861432105000,0,0,-14835,30,-2027,-5,96,-32257,6911,4096,0
1776861432105000,0,0,-12835,30,-2027,-4,99,32767,6399,4096,0
1776861432105000,0,0,-10835,30,-2027,-3,95,-32513,6399,4096,0
1776861432105000,0,0,-8835,30,-2028,-6,105,-32513,6655,3840,0
1776861432105000,0,0,-6835,30,-2025,-8,104,-32001,6143,4096,0
1776861432105000,0,0,-4835,30,-2022,-4,102,-32257,5631,4352,0
1776861432105000,0,0,-2835,30,-2022,-1,101,-32257,5887,4608,0
1776861434189058,-2019,0,-158,-127,23,15,0,0,0,0,0
1776861434191058,-2025,-8,-164,-127,25,16,0,0,0,0,0
1776861434193058,-2026,-5,-160,-128,27,17,0,0,0,0,0
1776861434195058,-2019,-3,-164,-128,28,16,0,0,0,0,0
1776861434197058,-2020,-10,-159,-129,27,16,0,0,0,0,0
1776861434199058,-2024,-10,-150,-128,23,17,0,0,0,0,0
1776861434201058,-2020,-12,-147,-127,24,16,0,0,0,0,0
1776861434203058,-2023,-4,-157,-127,24,16,0,0,0,0,0
1776861434205058,-2024,-3,-161,-127,26,15,0,0,0,0,0
1776861434207058,-2021,1,-156,-129,26,16,0,0,0,0,0
1776861434209058,-2027,-6,-160,-129,25,17,204,8226,5120,-2056,255
1776865718683528,24,17,0,0,0,0,156,8234,5632,-1544,255
1776865718683538,24,16,0,0,0,0,108,8242,5376,-2056,255
1776865718683530,25,16,0,0,0,0,60,8250,5632,-1288,255
1776865718814607,27,16,0,0,0,0,12,8258,6912,-1544,255
1776865718814601,25,16,0,0,0,0,220,8265,6656,-520,255
1776865718814593,23,16,0,0,0,0,172,8273,5888,-1288,255
1776865718749064,25,16,0,0,0,0,124,8281,6400,-1032,255
1776865718814602,25,16,0,0,0,0,76,8289,7680,-1544,255
1776865718749071,26,17,0,0,0,0,28,8297,7680,-776,255
1776865718749072,25,16,0,0,0,0,236,8304,7936,-776,255
1776865718617995,25,16,30907,32,-2019,-2,98,32255,6655,3584,0
1776861432105000,0,0,-32629,32,-2020,-2,98,-32513,6655,3840,0
1776861432105000,0,0,-30629,32,-2024,-4,99,-31745,6399,4096,0
1776861432105000,0,0,-28629,32,-2022,-7,89,-32001,6655,3840,0
1776861432105000,0,0,-26629,32,-2026,-6,102,32767,6655,4096,0
1776861432105000,0,0,-24629,32,-2023,2,101,-32513,6655,4352,0
1776861432105000,0,0,-22629,32,-2030,4,101,-32257,7167,4096,0
1776861432105000,0,0,-20629,32,-2026,1,94,-32513,7935,4096,0
1776861432105000,0,0,-18629,32,-2026,-3,98,32511,7423,4096,0
1776861432105000,0,0,-16629,32,-2030,-11,100,32767,6143,4608,0
1776861432105000,0,0,-14629,32,-2027,-11,91,-32513,5631,4608,0
1776861434255058,-2032,-3,-161,-127,23,17,0,0,0,0,0
1776861434257058,-2029,-3,-169,-128,26,18,0,0,0,0,0
1776861434259058,-2029,-4,-162,-128,27,18,0,0,0,0,0
1776861434261058,-2026,-2,-151,-128,26,17,0,0,0,0,0
1776861434263058,-2029,-5,-155,-129,25,17,0,0,0,0,0
1776861434265058,-2033,-7,-156,-130,25,16,0,0,0,0,0
1776861434267058,-2033,-5,-145,-130,26,18,0,0,0,0,0
1776861434269058,-2028,-3,-145,-130,27,18,0,0,0,0,0
1776861434271058,-2027,-4,-160,-128,25,17,0,0,0,0,0
1776861434273058,-2024,-4,-161,-127,26,17,0,0,0,0,0
1776861434275058,-2019,-4,-151,-128,25,17,156,8484,7936,-520,255
1776865718814604,25,19,0,0,0,0,108,8492,6656,-1288,255
1776865718814601,24,18,0,0,0,0,60,8500,6912,-264,255
1776865718683534,25,16,0,0,0,0,12,8508,7168,248,0
1776865718749067,26,16,0,0,0,0,220,8515,6400,-776,255
1776865718617999,25,16,0,0,0,0,172,8523,7168,-776,255
1776865718683542,23,16,0,0,0,0,124,8531,5888,-1800,255
1776865718618004,24,15,0,0,0,0,76,8539,4352,-776,255
1776865718618005,26,16,0,0,0,0,28,8547,5120,248,0
1776865718552456,26,15,0,0,0,0,236,8554,3584,-776,255
1776865718617994,25,14,0,0,0,0,188,8562,4864,-1800,255
1776865718617992,25,16,31372,33,-2019,-7,104,32767,6655,4352,0
1776861432105000,0,0,-32164,33,-2026,-5,101,-32513,6143,4096,0
1776861432105000,0,0,-30164,33,-2027,-1,107,-32513,5887,4096,0
1776861432105000,0,0,-28164,33,-2021,-2,101,32767,6655,3840,0
1776861432105000,0,0,-26164,33,-2019,-5,104,-32513,6655,3840,0
1776861432105000,0,0,-24164,33,-2024,-5,107,-32513,6911,4608,0
1776861432105000,0,0,-22164,33,-2023,-11,104,32511,6911,4352,0
1776861432105000,0,0,-20164,33,-2029,-4,99,-32257,6399,3840,0
1776861432105000,0,0,-18164,33,-2027,0,99,-32001,6655,3840,0
1776861432105000,0,0,-16164,33,-2029,-2,98,-32513,7167,3840,0
1776861432105000,0,0,-14164,33,-2022,-1,99,-32513,6911,4352,0
1776861434321059,-2017,-9,-167,-128,25,17,0,0,0,0,0
1776861434323059,-2017,-8,-164,-129,24,17,0,0,0,0,0
1776861434325059,-2024,-5,-165,-129,26,15,0,0,0,0,0
1776861434327059,-2022,-9,-156,-128,27,16,0,0,0,0,0
1776861434329059,-2024,-4,-161,-128,25,16,0,0,0,0,0
1776861434331059,-2020,-9,-161,-129,23,16,0,0,0,0,0
1776861434333059,-2023,-6,-149,-129,24,17,0,0,0,0,0
1776861434335059,-2028,-5,-149,-126,26,18,0,0,0,0,0
1776861434337059,-2023,-8,-158,-125,27,17,0,0,0,0,0
1776861434339059,-2030,-2,-161,-127,26,17,0,0,0,0,0
1776861434341059,-2028,-5,-164,-129,24,17,107,8742,5376,-2056,255
1776865718617986,25,15,0,0,0,0,59,8750,4864,-776,255
1776865718683525,27,14,0,0,0,0,11,8758,5888,-776,255
1776865718814595,24,15,0,0,0,0,219,8765,6400,-1032,255
1776865718814589,24,16,0,0,0,0,171,8773,6912,-776,255
1776865718814610,23,16,0,0,0,0,123,8781,6656,-520,255
1776865718683526,26,17,0,0,0,0,75,8789,6656,-1032,255
1776865718880133,25,18,0,0,0,0,27,8797,6400,-1288,255
1776865718880136,26,17,0,0,0,0,235,8804,5376,-776,255
1776865718749062,27,17,0,0,0,0,187,8812,5632,-520,255
1776865718814593,25,16,0,0,0,0,139,8820,5632,-2056,255
1776865718749052,24,14,31834,34,-2025,-7,96,32767,6143,3840,0
1776861432105000,0,0,-31702,34,-2025,0,101,-32257,6143,3840,0
1776861432105000,0,0,-29702,34,-2029,-5,95,-32513,6399,3584,0
1776861432105000,0,0,-27702,34,-2019,-7,98,32767,7167,4352,0
1776861432105000,0,0,-25702,34,-2020,-4,109,-32513,6911,5120,0
1776861432105000,0,0,-23702,34,-2019,0,100,-32513,6143,4352,0
1776861432105000,0,0,-21700,34,-2020,-5,98,32767,5887,4352,0
1776861432105000,0,0,-19700,34,-2024,-12,100,32767,6399,4096,0
1776861432105000,0,0,-17700,34,-2029,-9,94,-32513,6399,3840,0
1776861432105000,0,0,-15700,34,-2024,-8,95,32767,6655,3840,0
1776861432105000,0,0,-13700,34,-2023,-7,94,32767,6655,4096,0
1776861434387059,-2027,-5,-160,-128,24,17,0,0,0,0,0
1776861434389059,-2028,0,-165,-129,27,16,0,0,0,0,0
1776861434391059,-2025,0,-161,-129,25,14,0,0,0,0,0
1776861434393058,-2027,-3,-159,-128,25,13,0,0,0,0,0
1776861434395058,-2025,-2,-153,-130,24,14,0,0,0,0,0
1776861434397058,-2025,-3,-155,-130,23,16,0,0,0,0,0
1776861434399058,-2030,-5,-158,-130,24,15,0,0,0,0,0
1776861434401058,-2026,-6,-165,-130,25,16,0,0,0,0,0
1776861434403058,-2029,-3,-168,-129,24,16,0,0,0,0,0
1776861434405058,-2022,-7,-156,-129,23,15,0,0,0,0,0
1776861434407058,-2024,-8,-157,-128,22,16,60,9000,5632,-2056,255
1776865718749064,22,16,0,0,0,0,12,9008,5888,-2312,255
1776865718749068,22,17,0,0,0,0,220,9015,6144,-2568,255
1776865718749056,25,18,0,0,0,0,172,9023,6144,-2312,255
1776865718814596,26,18,0,0,0,0,124,9031,6400,-1032,255
1776865718749065,22,17,0,0,0,0,76,9039,6656,-1288,255
1776865718683529,22,18,0,0,0,0,28,9047,5376,-520,255
1776865718617996,23,19,0,0,0,0,236,9054,6400,-1032,255
1776865718814604,25,18,0,0,0,0,188,9062,6656,-1032,255
1776865718880142,25,17,0,0,0,0,140,9070,6144,-1032,255
1776865718617997,24,16,0,0,0,0,92,9078,5120,248,0
1776865718618000,27,16,32299,35,-2028,-5,99,-32257,6911,4096,0
1776861432105000,0,0,-31237,35,-2023,-7,99,32767,6399,4608,0
1776861432105000,0,0,-29237,35,-2023,2,82,-32513,6143,4352,0
1776861432105000,0,0,-27237,35,-2024,0,91,-32513,6399,4352,0
1776861432105000,0,0,-25238,35,-2022,0,104,32767,6399,3840,0
1776861432105000,0,0,-23238,35,-2022,-5,107,32767,6655,3328,0
1776861432105000,0,0,-21238,35,-2029,-4,100,32767,6911,3328,0
1776861432105000,0,0,-19238,35,-2024,-8,98,32767,6143,3584,0
1776861432105000,0,0,-17238,35,-2022,-10,96,32511,5887,3584,0
1776861432105000,0,0,-15238,35,-2028,0,104,32511,6143,3328,0
1776861432105000,0,0,-13236,35,-2030,1,93,-32257,6399,3840,0
1776861434453060,-2030,-6,-164,-128,25,17,0,0,0,0,0
1776861434455060,-2025,-7,-172,-129,26,16,0,0,0,0,0
1776861434457060,-2021,-9,-165,-129,26,16,0,0,0,0,0
1776861434459060,-2024,-5,-159,-128,25,17,0,0,0,0,0
1776861434461060,-2023,-7,-154,-128,24,15,0,0,0,0,0
1776861434463060,-2023,-11,-154,-129,25,16,0,0,0,0,0
1776861434465059,-2023,-6,-153,-128,27,16,0,0,0,0,0
1776861434467059,-2023,-2,-153,-127,26,16,0,0,0,0,0
1776861434469059,-2027,-5,-156,-126,25,18,0,0,0,0,0
1776861434471059,-2024,-9,-151,-127,24,20,0,0,0,0,0
1776861434473059,-2026,-11,-154,-128,25,18,10,9258,6400,-776,255
1776865718683524,24,16,0,0,0,0,218,9265,7424,-1800,255
1776865718749062,23,17,0,0,0,0,170,9273,5888,-2312,255
1776865718814604,25,17,0,0,0,0,122,9281,5120,-1288,255
1776865718814609,24,15,0,0,0,0,74,9289,5376,-264,255
1776865718749061,26,18,0,0,0,0,26,9297,6656,-776,255
1776865718880136,27,18,0,0,0,0,234,9304,6912,-2056,255
1776865718945669,28,18,0,0,0,0,186,9312,5120,-1032,255
1776865718683530,25,17,0,0,0,0,138,9320,5376,-1288,255
1776865718749072,24,18,0,0,0,0,90,9328,6144,-1288,255
1776865718749058,28,17,0,0,0,0,42,9336,6400,-2568,255
1776865718749064,30,17,32764,36,-2024,-6,91,-32001,6911,4608,0
1776861432105000,0,0,-30772,36,-2018,-8,84,-32257,6399,4864,0
1776861432105000,0,0,-28772,36,-2020,2,91,-32513,6143,4608,0
1776861432105000,0,0,-26772,36,-2019,-6,98,32767,6143,3840,0
1776861432105000,0,0,-24772,36,-2018,-4,109,32767,6655,3840,0
1776861432105000,0,0,-22772,36,-2020,-6,99,32511,6655,4352,0
1776861432105000,0,0,-20772,36,-2021,-1,92,32767,6911,4608,0
1776861432105000,0,0,-18772,36,-2022,-3,95,-32257,6655,4096,0
1776861432105000,0,0,-16772,36,-2025,-1,94,32767,6655,4352,0
1776861432105000,0,0,-14772,36,-2020,-2,93,32767,7679,3840,0
1776861432105000,0,0,-12772,36,-2018,-3,96,32767,7679,3840,0
1776861434519059,-2026,-3,-162,-129,24,18,0,0,0,0,0
1776861434521059,-2026,-6,-161,-129,23,18,0,0,0,0,0
1776861434523059,-2021,-5,-166,-128,25,16,0,0,0,0,0
1776861434525059,-2024,-4,-162,-127,29,16,0,0,0,0,0
1776861434527059,-2018,-1,-162,-128,29,17,0,0,0,0,0
1776861434529059,-2018,-3,-164,-128,28,16,0,0,0,0,0
1776861434531059,-2022,-7,-156,-129,26,17,0,0,0,0,0
1776861434533059,-2026,0,-152,-129,22,15,0,0,0,0,0
1776861434535059,-2023,-3,-147,-127,24,14,0,0,0,0,0
1776861434537059,-2022,-1,-159,-127,27,15,0,0,0,0,0
1776861434539059,-2020,-7,-160,-129,25,16,114,9714,6144,-2056,255
1776865718683540,26,16,0,0,0,0,66,9722,4864,-2056,255
1776865718749067,25,17,0,0,0,0,18,9730,4864,-2056,255
1776865718683530,24,16,0,0,0,0,226,9737,4096,-1800,255
1776865718617981,24,15,0,0,0,0,178,9745,4864,-1800,255
1776865718683519,26,14,0,0,0,0,130,9753,4864,-1800,255
1776865718683531,24,13,0,0,0,0,82,9761,5376,-1032,255
1776865718683535,26,14,0,0,0,0,34,9769,6912,-2056,255
1776865718683530,25,15,0,0,0,0,242,9776,6144,-1032,255
1776865718617998,25,15,0,0,0,0,194,9784,6400,-1032,255
1776865718617996,26,17,0,0,0,0,146,9792,6144,-1288,255
1776865718749060,24,18,18532,38,-2025,-10,99,32767,6655,4352,0
1776861432105000,0,0,20532,38,-2025,-8,89,32767,6911,4096,0
1776861432105000,0,0,22532,38,-2023,-3,95,-32257,6399,4096,0
1776861432105000,0,0,24532,38,-2026,-2,100,-32513,6399,4352,0
1776861432105000,0,0,26532,38,-2028,-5,92,32767,6655,4352,0
1776861432105000,0,0,28532,38,-2027,-1,86,32767,6911,4352,0
1776861432105000,0,0,30532,38,-2025,-4,98,-32257,6655,4352,0
1776861432105000,0,0,32532,38,-2025,-4,95,-32513,5887,4096,0
1776861432105000,0,0,-31004,38,-2022,-2,89,-32513,5631,4096,0
1776861432105000,0,0,-29005,38,-2023,1,93,-32513,6143,4352,0
1776861432105000,0,0,-27005,38,-2021,1,102,-32257,6655,4352,0
1776861434635898,-2023,-2,-149,-129,25,16,0,0,0,0,0
1776861434637898,-2020,-8,-156,-128,24,16,0,0,0,0,0
1776861434639901,-2020,-5,-152,-127,23,15,0,0,0,0,0
1776861434641901,-2024,-13,-155,-128,24,16,0,0,0,0,0
1776861434643898,-2022,-2,-161,-127,24,16,0,0,0,0,0
1776861434645898,-2023,-3,-157,-127,25,15,0,0,0,0,0
1776861434647898,-2030,-3,-164,-128,23,16,0,0,0,0,0
1776861434649901,-2032,-8,-164,-129,23,16,0,0,0,0,0
1776861434651900,-2020,-8,-170,-128,27,17,0,0,0,0,0
1776861434653900,-2021,-6,-162,-128,27,15,0,0,0,0,0
1776861434655900,-2021,-2,-167,-128,26,16,67,9972,6912,-520,255
1776865718618000,24,17,0,0,0,0,19,9980,5888,-1288,255
1776865718749064,27,17,0,0,0,0,227,9987,7168,-776,255
1776865718880144,26,17,0,0,0,0,179,9995,6656,-1800,255
1776865718880137,25,16,0,0,0,0,130,10003,4608,-1800,255
1776865718749070,24,18,0,0,0,0,82,10011,5632,-2312,255
1776865718749069,24,16,0,0,0,0,34,10019,6400,-2056,255
1776865718683533,25,16,0,0,0,0,242,10026,6656,-1800,255
1776865718618004,23,17,0,0,0,0,194,10034,6656,-1800,255
1776865718683531,22,17,0,0,0,0,146,10042,7168,-1032,255
1776865718749070,24,16,0,0,0,0,100,10050,6912,-776,255
1776865718749085,25,15,18996,39,-2024,-5,114,-32513,6911,3840,0
1776861432105000,0,0,20996,39,-2026,-2,110,32767,6399,4096,0
1776861432105000,0,0,22996,39,-2025,0,106,32767,6399,4096,0
1776861432105000,0,0,24996,39,-2021,-3,96,-32513,6911,4352,0
1776861432105000,0,0,26996,39,-2017,0,98,-32257,6143,4096,0
1776861432105000,0,0,28995,39,-2019,-2,97,32767,5887,4096,0
1776861432105000,0,0,30995,39,-2024,-5,94,-32513,6399,3840,0
1776861432105000,0,0,-32541,39,-2022,-5,94,-32513,7423,3840,0
1776861432105000,0,0,-30541,39,-2024,-4,85,-32257,7167,3840,0
1776861432105000,0,0,-28541,39,-2021,-2,95,-32001,6655,3840,0
1776861432105000,0,0,-26541,39,-2024,-8,96,-32257,6399,3840,0
1776861434701898,-2026,-11,-164,-127,25,15,0,0,0,0,0
1776861434703898,-2024,-11,-162,-127,24,13,0,0,0,0,0
1776861434705898,-2024,-9,-163,-130,25,14,0,0,0,0,0
1776861434707898,-2027,-8,-164,-129,24,17,0,0,0,0,0
1776861434709898,-2025,-7,-160,-128,24,16,0,0,0,0,0
1776861434711898,-2028,-6,-160,-128,25,15,0,0,0,0,0
1776861434713898,-2023,-3,-156,-127,26,15,0,0,0,0,0
1776861434715898,-2027,-5,-151,-128,26,17,0,0,0,0,0
1776861434717898,-2028,-10,-158,-129,25,17,0,0,0,0,0
1776861434719898,-2029,-4,-167,-128,24,17,0,0,0,0,0
1776861434721898,-2026,-2,-161,-128,24,15,20,10230,6400,-776,255
1776865718683519,25,16,0,0,0,0,228,10237,6656,504,0
1776865718749065,27,18,0,0,0,0,180,10245,7168,-1288,255
1776865718814607,26,18,0,0,0,0,132,10253,8192,248,0
1776865718749070,25,17,0,0,0,0,84,10261,7168,-520,255
1776865718749071,23,16,0,0,0,0,35,10269,6400,-264,255
1776865718814614,22,15,0,0,0,0,243,10276,5888,-1544,255
1776865718617995,25,16,0,0,0,0,195,10284,3584,-1544,255
1776865718683526,27,16,0,0,0,0,147,10292,5632,-1544,255
1776865718683520,26,16,0,0,0,0,99,10300,4352,-8,255
1776865718617981,26,16,0,0,0,0,51,10308,5632,-776,255
1776865718683528,26,17,19458,40,-2023,-6,93,-32513,6655,4096,0
1776861432105000,0,0,21458,40,-2022,-11,101,-32513,6911,3840,0
1776861432105000,0,0,23458,40,-2020,-10,102,-32513,6911,4352,0
1776861432105000,0,0,25458,40,-2024,-7,109,-32513,6911,4352,0
1776861432105000,0,0,27458,40,-2023,-7,90,-32257,6399,4352,0
1776861432105000,0,0,29458,40,-2022,-5,86,-32513,6143,4352,0
1776861432105000,0,0,31458,40,-2021,-3,97,32767,5887,4096,0
1776861432105000,0,0,-32078,40,-2024,-2,102,-32513,6143,4096,0
1776861432105000,0,0,-30078,40,-2021,-1,102,-32257,6655,4352,0
1776861432105000,0,0,-28078,40,-2023,1,104,-32513,6911,4352,0
1776861432105000,0,0,-26075,40,-2024,0,100,-32513,6655,3840,0
1776861434767900,-2020,-3,-155,-128,25,15,0,0,0,0,0
1776861434769900,-2031,-4,-154,-127,23,18,0,0,0,0,0
1776861434771900,-2032,-5,-159,-128,22,18,0,0,0,0,0
1776861434773900,-2027,-3,-156,-128,25,16,0,0,0,0,0
1776861434775900,-2029,-4,-161,-129,26,15,0,0,0,0,0
1776861434777900,-2030,-3,-152,-129,24,15,0,0,0,0,0
1776861434779900,-2026,-4,-146,-130,26,15,0,0,0,0,0
1776861434781900,-2031,-2,-143,-129,26,15,0,0,0,0,0
1776861434783900,-2030,-2,-152,-129,24,16,0,0,0,0,0
1776861434785900,-2031,-3,-148,-129,24,17,0,0,0,0,0
1776861434787900,-2032,-2,-158,-129,22,16,227,10487,5888,-776,255
1776865718683530,22,15,0,0,0,0,179,10495,7168,-1800,255
1776865718683531,24,15,0,0,0,0,131,10503,6400,-3080,255
1776865718683528,25,16,0,0,0,0,83,10511,5888,-2056,255
1776865718683526,25,17,0,0,0,0,35,10519,5376,-1032,255
1776865718683518,25,17,0,0,0,0,243,10526,4864,-1544,255
1776865718814594,24,16,0,0,0,0,195,10534,5376,-2056,255
1776865718683530,24,15,0,0,0,0,147,10542,6656,-2312,255
1776865718617996,27,16,0,0,0,0,99,10550,5888,-2312,255
1776865718683532,29,16,0,0,0,0,51,10558,5632,-1800,255
1776865718749068,28,17,0,0,0,0,3,10566,6400,-1544,255
1776865718749058,25,16,19922,41,-2024,-7,101,32511,6399,4096,0
1776861432105000,0,0,21922,41,-2026,-3,98,32255,6655,4096,0
1776861432105000,0,0,23922,41,-2023,-8,99,32511,6911,4096,0
1776861432105000,0,0,25922,41,-2023,-4,95,-32257,7167,4096,0
1776861432105000,0,0,27922,41,-2021,-8,87,-32513,6911,4352,0
1776861432105000,0,0,29922,41,-2022,-6,95,-32513,6911,4352,0
1776861432105000,0,0,31922,41,-2025,-3,100,-32513,6399,3840,0
1776861432105000,0,0,-31614,41,-2024,-3,103,-32513,6143,4096,0
1776861432105000,0,0,-29612,41,-2027,-8,101,-32513,6399,4096,0
1776861432105000,0,0,-27612,41,-2022,-3,94,-32513,6655,4352,0
1776861432105000,0,0,-25612,41,-2020,-8,107,-32513,6399,4352,0
1776861434833899,-2023,0,-150,-128,23,18,0,0,0,0,0
1776861434835899,-2023,2,-166,-130,25,18,0,0,0,0,0
1776861434837899,-2024,-5,-166,-129,25,18,0,0,0,0,0
1776861434839899,-2023,-4,-164,-130,25,17,0,0,0,0,0
1776861434841899,-2020,-1,-157,-130,24,17,0,0,0,0,0
1776861434843899,-2024,0,-153,-129,26,17,0,0,0,0,0
1776861434845898,-2027,-3,-146,-129,26,15,0,0,0,0,0
1776861434847898,-2024,6,-156,-128,25,16,0,0,0,0,0
1776861434849898,-2020,-4,-167,-127,26,18,0,0,0,0,0
1776861434851898,-2019,-5,-168,-127,26,18,0,0,0,0,0
1776861434853898,-2019,-2,-166,-127,26,18,180,10745,7168,-520,255
1776865718814604,23,18,0,0,0,0,132,10753,6400,-1032,255
1776865718749072,22,18,0,0,0,0,84,10761,6656,-520,255
1776865718683524,24,17,0,0,0,0,36,10769,7680,-776,255
1776865718617994,26,17,0,0,0,0,244,10776,7680,-1544,255
1776865718749064,25,17,0,0,0,0,196,10784,7168,-2312,255
1776865718814610,25,17,0,0,0,0,148,10792,6912,-1544,255
1776865718749071,24,16,0,0,0,0,100,10800,5632,-520,255
1776865718683526,22,15,0,0,0,0,52,10808,5120,-776,255
1776865718749070,25,15,0,0,0,0,4,10816,6912,-264,255
1776865718814604,26,17,0,0,0,0,212,10823,6656,-264,255
1776865718617994,24,18,20387,42,-2019,-1,98,32255,6399,4352,0
1776861432105000,0,0,22387,42,-2020,-3,94,-32513,5631,4352,0
1776861432105000,0,0,24387,42,-2024,-8,100,-32001,6143,3840,0
1776861432105000,0,0,26387,42,-2023,-4,103,-32257,6655,3840,0
1776861432105000,0,0,28387,42,-2022,-2,99,-32257,6911,4096,0
1776861432105000,0,0,30387,42,-2020,-1,108,-32001,6399,4096,0
1776861432105000,0,0,32387,42,-2022,-3,104,-32257,6399,3840,0
1776861432105000,0,0,-31149,42,-2024,-4,101,-32257,6911,4096,0
1776861432105000,0,0,-29149,42,-2023,-3,96,-32257,7167,3840,0
1776861432105000,0,0,-27149,42,-2022,-5,98,-32001,7167,4096,0
1776861432105000,0,0,-25149,42,-2024,-7,95,-32001,6655,4096,0
1776861434899898,-2021,-6,-153,-130,25,16,0,0,0,0,0
1776861434901898,-2027,-3,-144,-130,25,16,0,0,0,0,0
1776861434903898,-2030,-7,-160,-128,24,15,0,0,0,0,0
1776861434905898,-2027,-7,-165,-126,25,15,0,0,0,0,0
1776861434907898,-2027,-8,-158,-127,25,16,0,0,0,0,0
1776861434909898,-2028,-7,-157,-127,24,17,0,0,0,0,0
1776861434911898,-2028,-1,-158,-128,24,18,0,0,0,0,0
1776861434913898,-2026,-3,-158,-129,26,18,0,0,0,0,0
1776861434915898,-2023,-9,-160,-128,25,19,0,0,0,0,0
1776861434917898,-2024,-3,-159,-126,26,18,0,0,0,0,0
1776861434919898,-2022,-4,-169,-127,26,16,130,11003,6656,-1032,255
1776865718880134,28,16,0,0,0,0,82,11011,6400,-264,255
1776865718814593,28,17,0,0,0,0,34,11019,5376,-1032,255
1776865718749062,27,17,0,0,0,0,242,11026,7424,-520,255
1776865718814597,26,18,0,0,0,0,194,11034,6144,504,0
1776865718749063,23,17,0,0,0,0,146,11042,5632,248,0
1776865718683523,24,15,0,0,0,0,98,11050,6400,-776,255
1776865718617986,25,16,0,0,0,0,50,11058,8960,-1288,255
1776865718617985,26,16,0,0,0,0,2,11066,8448,-1288,255
1776865718683532,27,17,0,0,0,0,210,11073,8192,-264,255
1776865718683533,27,17,0,0,0,0,162,11081,6912,248,0
1776865718683529,26,18,5941,44,-2025,-2,101,-32513,5887,4096,0
1776861432105000,0,0,7941,44,-2020,-9,105,-32513,6143,4096,0
1776861432105000,0,0,9941,44,-2023,-9,105,-32257,6655,3840,0
1776861432105000,0,0,11941,44,-2018,-8,101,-32257,6655,4096,0
1776861432105000,0,0,13941,44,-2020,-10,92,-32257,6655,4352,0
1776861432105000,0,0,15941,44,-2022,-7,89,-32513,6911,4352,0
1776861432105000,0,0,17941,44,-2020,-7,96,-32513,6911,4608,0
1776861432105000,0,0,19941,44,-2019,-6,100,-32257,6399,4864,0
1776861432105000,0,0,21941,44,-2019,-6,99,-32001,6399,4608,0
1776861432105000,0,0,23941,44,-2028,-1,98,-32513,6399,4096,0
1776861432105000,0,0,25941,44,-2021,2,100,-32001,6399,4352,0
1776861435016527,-2024,2,-157,-128,26,16,0,0,0,0,0
1776861435018527,-2016,-1,-159,-128,27,17,0,0,0,0,0
1776861435020527,-2018,-3,-157,-128,25,17,0,0,0,0,0
1776861435022527,-2017,-6,-156,-131,23,14,0,0,0,0,0
1776861435024527,-2021,-9,-165,-130,24,14,0,0,0,0,0
1776861435026527,-2022,-7,-161,-130,25,16,0,0,0,0,0
1776861435028527,-2027,-6,-165,-130,26,17,0,0,0,0,0
1776861435030527,-2026,-5,-163,-128,27,17,0,0,0,0,0
1776861435032527,-2031,-9,-161,-129,27,15,0,0,0,0,0
1776861435034527,-2028,-7,-160,-128,25,15,0,0,0,0,0
1776861435036527,-2030,-6,-152,-129,24,17,22,11459,5120,-1032,255
1776865718749071,23,18,0,0,0,0,230,11466,5632,-264,255
1776865718749074,26,17,0,0,0,0,182,11474,5632,-8,255
1776865718683540,27,17,0,0,0,0,134,11482,6656,-1288,255
1776865718814606,24,17,0,0,0,0,86,11490,7424,-1032,255
1776865718814606,22,17,0,0,0,0,38,11498,6144,-1544,255
1776865718814606,24,19,0,0,0,0,246,11505,6144,-1544,255
1776865718683528,26,18,0,0,0,0,198,11513,5888,248,0
1776865718617999,25,16,0,0,0,0,149,11521,5376,248,0
1776865718749073,23,15,0,0,0,0,101,11529,5120,-776,255
1776865718749079,23,16,0,0,0,0,53,11537,6144,-776,255
1776865718814603,26,17,6407,45,-2025,-10,94,-32513,6911,4352,0
1776861432105000,0,0,8407,45,-2022,-15,103,-32257,6911,4096,0
1776861432105000,0,0,10407,45,-2024,-9,102,-32513,6911,4096,0
1776861432105000,0,0,12407,45,-2022,-6,107,-32513,6143,3840,0
1776861432105000,0,0,14407,45,-2026,-4,104,-32257,5887,4096,0
1776861432105000,0,0,16407,45,-2027,-1,88,32767,6399,4352,0
1776861432105000,0,0,18407,45,-2023,-3,89,32767,6911,4352,0
1776861432105000,0,0,20407,45,-2027,-5,90,-32513,6655,4352,0
1776861432105000,0,0,22407,45,-2021,-8,93,-32513,6655,4096,0
1776861432105000,0,0,24407,45,-2025,-8,87,-32257,6143,3840,0
1776861432105000,0,0,26407,45,-2030,-7,90,-32513,5887,4096,0
1776861435082526,-2021,-8,-171,-128,23,16,0,0,0,0,0
1776861435084526,-2023,-8,-151,-128,25,17,0,0,0,0,0
1776861435086526,-2017,-5,-162,-128,26,17,0,0,0,0,0
1776861435088526,-2021,-7,-164,-128,25,17,0,0,0,0,0
1776861435090526,-2026,-6,-164,-127,23,17,0,0,0,0,0
1776861435092526,-2023,-2,-155,-128,21,18,0,0,0,0,0
1776861435094526,-2021,0,-153,-127,23,18,0,0,0,0,0
1776861435096526,-2027,-3,-158,-128,25,15,0,0,0,0,0
1776861435098526,-2027,-5,-152,-127,25,17,0,0,0,0,0
1776861435100526,-2029,0,-162,-128,26,17,0,0,0,0,0
1776861435102525,-2028,0,-164,-128,26,17,232,11716,5888,504,0
1776865718683521,25,16,0,0,0,0,181,11724,6400,-8,255
1776865718617995,25,16,0,0,0,0,135,11732,6912,-1544,255
1776865718749069,25,17,0,0,0,0,87,11740,6400,-776,255
1776865718880134,24,16,0,0,0,0,39,11748,6144,-1288,255
1776865718814610,25,16,0,0,0,0,247,11755,5376,-520,255
1776865718617997,27,16,0,0,0,0,199,11763,6400,504,0
1776865718749069,25,17,0,0,0,0,151,11771,4608,504,0
1776865718683540,24,18,0,0,0,0,103,11779,6144,-776,255
1776865718749073,23,16,0,0,0,0,55,11787,6656,-2056,255
1776865718683534,25,14,0,0,0,0,7,11795,6144,-1800,255
1776865718683525,25,15,6870,46,-2021,-9,89,-32513,6399,4096,0
1776861432105000,0,0,8870,46,-2022,-4,85,-32513,6143,4096,0
1776861432105000,0,0,10870,46,-2024,-6,100,-32257,6399,4096,0
1776861432105000,0,0,12870,46,-2020,-11,97,-32513,6399,4608,0
1776861432105000,0,0,14870,46,-2021,-5,93,-32257,6143,4352,0
1776861432105000,0,0,16870,46,-2020,-9,95,-32257,6143,4096,0
1776861432105000,0,0,18870,46,-2020,-8,96,-32513,6399,4096,0
1776861432105000,0,0,20870,46,-2026,-1,87,32767,6655,4096,0
1776861432105000,0,0,22870,46,-2022,-7,94,32511,6911,4352,0
1776861432105000,0,0,24870,46,-2026,-5,99,-32513,7167,4352,0
1776861432105000,0,0,26870,46,-2028,-6,99,-32513,7167,4352,0
1776861435148525,-2026,-8,-164,-129,25,17,0,0,0,0,0
1776861435150525,-2022,-6,-160,-129,24,15,0,0,0,0,0
1776861435152525,-2022,-7,-161,-129,23,17,0,0,0,0,0
1776861435154525,-2022,-9,-175,-128,24,19,0,0,0,0,0
1776861435156525,-2025,-10,-163,-128,24,17,0,0,0,0,0
1776861435158525,-2022,-9,-171,-129,23,17,0,0,0,0,0
1776861435160525,-2019,-8,-158,-129,24,17,0,0,0,0,0
1776861435162525,-2022,-5,-157,-129,24,16,0,0,0,0,0
1776861435164525,-2024,-8,-166,-129,24,14,0,0,0,0,0
1776861435166525,-2022,-7,-160,-128,25,16,0,0,0,0,0
1776861435168525,-2022,-7,-155,-128,26,17,183,11974,6656,-520,255
1776865718749057,25,16,0,0,0,0,135,11982,6912,-1544,255
1776865718683526,24,17,0,0,0,0,87,11990,7168,-2312,255
1776865718683528,23,15,0,0,0,0,39,11998,6656,-1288,255
1776865718683534,24,14,0,0,0,0,247,12005,5376,-520,255
1776865718749067,23,13,0,0,0,0,199,12013,5376,-1032,255
1776865718683521,22,14,0,0,0,0,151,12021,5632,-520,255
1776865718749065,24,17,0,0,0,0,103,12029,5888,248,0
1776865718683519,25,17,0,0,0,0,54,12037,7424,-776,255
1776865718683522,25,16,0,0,0,0,6,12045,8192,-8,255
1776865718683529,21,17,0,0,0,0,214,12052,6400,-1288,255
1776865718683534,22,16,7333,47,-2025,-6,101,32511,6399,3840,0
1776861432105000,0,0,9333,47,-2019,-10,104,32255,6143,4096,0
1776861432105000,0,0,11333,47,-2021,-4,99,-32257,6143,4096,0
1776861432105000,0,0,13333,47,-2018,0,89,-32513,6399,3840,0
1776861432105000,0,0,15336,47,-2015,0,98,32767,6399,4096,0
1776861432105000,0,0,17335,47,-2018,-2,96,-32257,6911,4352,0
1776861432105000,0,0,19335,47,-2028,-9,87,32767,6399,4352,0
1776861432105000,0,0,21335,47,-2026,-8,84,32511,6399,4096,0
1776861432105000,0,0,23335,47,-2020,-7,90,-32257,6655,4608,0
1776861432105000,0,0,25335,47,-2019,-7,94,-32513,6399,4608,0
1776861432105000,0,0,27335,47,-2022,-2,101,-32257,6143,3840,0
1776861435214526,-2016,3,-152,-126,25,15,0,0,0,0,0
1776861435216526,-2019,2,-162,-126,24,15,0,0,0,0,0
1776861435218526,-2014,3,-153,-128,26,16,0,0,0,0,0
1776861435220526,-2018,-2,-158,-129,25,16,0,0,0,0,0
1776861435222526,-2023,-1,-155,-128,22,17,0,0,0,0,0
1776861435224525,-2024,-5,-152,-130,24,16,0,0,0,0,0
1776861435226525,-2030,-7,-158,-129,27,14,0,0,0,0,0
1776861435228525,-2021,-10,-158,-129,28,17,0,0,0,0,0
1776861435230525,-2019,-9,-157,-129,26,17,0,0,0,0,0
1776861435232525,-2019,-11,-152,-128,23,16,0,0,0,0,0
1776861435234525,-2021,-7,-151,-128,23,15,135,12232,5632,-1800,255
1776865718880132,23,16,0,0,0,0,87,12240,6400,-264,255
1776865718749067,24,15,0,0,0,0,39,12248,6912,-1032,255
1776865718749065,23,16,0,0,0,0,247,12255,5632,-8,255
1776865718683518,23,17,0,0,0,0,198,12263,6400,-776,255
1776865718814603,23,16,0,0,0,0,150,12271,5632,-776,255
1776865718880138,23,15,0,0,0,0,102,12279,5120,-2824,255
1776865718945676,24,15,0,0,0,0,54,12287,5632,-2824,255
1776865718814604,26,14,0,0,0,0,6,12295,5120,-776,255
1776865718814618,26,16,0,0,0,0,214,12302,4096,-8,255
1776865718814608,25,14,0,0,0,0,166,12310,5120,-1032,255
1776865718814604,24,14,7797,48,-2022,-9,92,-32257,6399,4096,0
1776861432105000,0,0,9797,48,-2023,-5,98,-32257,6143,4352,0
1776861432105000,0,0,11797,48,-2026,-8,107,-32513,6399,4096,0
1776861432105000,0,0,13797,48,-2024,-6,95,32767,6143,4096,0
1776861432105000,0,0,15797,48,-2028,-8,96,32767,6143,4352,0
1776861432105000,0,0,17797,48,-2020,-2,89,-32257,6399,4352,0
1776861432105000,0,0,19797,48,-2019,2,95,-32257,6143,4352,0
1776861432105000,0,0,21797,48,-2024,0,112,-32257,5887,4352,0
1776861432105000,0,0,23797,48,-2028,-2,107,-32257,6143,4096,0
1776861432105000,0,0,25797,48,-2028,-4,98,-32513,5887,3840,0
1776861432105000,0,0,27797,48,-2026,-7,96,-32513,6655,4096,0
1776861435280527,-2024,-8,-158,-129,28,18,0,0,0,0,0
1776861435282527,-2025,-7,-159,-130,26,17,0,0,0,0,0
1776861435284527,-2022,-7,-164,-128,26,15,0,0,0,0,0
1776861435286527,-2027,-7,-161,-128,26,17,0,0,0,0,0
1776861435288527,-2024,-4,-158,-129,23,17,0,0,0,0,0
1776861435290527,-2025,-6,-145,-129,21,16,0,0,0,0,0
1776861435292527,-2019,-3,-150,-129,21,16,0,0,0,0,0
1776861435294527,-2027,-6,-156,-130,22,17,0,0,0,0,0
1776861435296527,-2028,-10,-162,-128,24,16,0,0,0,0,0
1776861435298527,-2023,-6,-152,-127,26,17,0,0,0,0,0
1776861435300527,-2020,-3,-157,-128,25,17,86,12490,5376,-1800,255
1776865718749068,23,18,0,0,0,0,38,12498,5632,-776,255
1776865718749072,24,18,0,0,0,0,246,12505,6656,-776,255
1776865718880139,28,17,0,0,0,0,198,12513,6912,-264,255
1776865718880135,29,16,0,0,0,0,150,12521,7680,-776,255
1776865718814593,26,17,0,0,0,0,102,12529,6912,-776,255
1776865718749061,24,17,0,0,0,0,54,12537,5888,-1032,255
1776865718814598,24,16,0,0,0,0,6,12545,6144,-1032,255
1776865718814607,25,16,0,0,0,0,214,12552,7168,-520,255
1776865718880139,24,17,0,0,0,0,166,12560,7936,-776,255
1776865718814605,24,18,0,0,0,0,118,12568,7424,-8,255
1776865718749071,24,16,8261,49,-2023,-1,92,-32257,6143,4096,0
1776861432105000,0,0,10261,49,-2021,-5,89,-32513,6655,4096,0
1776861432105000,0,0,12261,49,-2016,-6,98,-32513,6655,3584,0
1776861432105000,0,0,14261,49,-2018,-2,87,-32257,6399,4096,0
1776861432105000,0,0,16261,49,-2023,-3,89,-32513,6399,4352,0
1776861432105000,0,0,18261,49,-2025,-4,98,32767,6399,3840,0
1776861432105000,0,0,20261,49,-2025,-6,90,-32513,6143,4096,0
1776861432105000,0,0,22261,49,-2027,-7,103,-32513,6399,4608,0
1776861432105000,0,0,24261,49,-2020,0,101,-32513,6911,4096,0
1776861432105000,0,0,26261,49,-2022,-6,93,-32513,6911,3840,0
1776861432105000,0,0,28263,49,-2025,-4,98,-32513,6655,3840,0
1776861435394505,-2020,3,-147,-129,26,18,0,0,0,0,0
1776861435396505,-2024,2,-147,-128,27,17,0,0,0,0,0
1776861435398505,-2027,-4,-160,-128,25,17,0,0,0,0,0
1776861435400505,-2028,-6,-163,-130,24,16,0,0,0,0,0
1776861435402505,-2025,-3,-154,-128,26,17,0,0,0,0,0
1776861435404505,-2026,-2,-157,-128,27,18,0,0,0,0,0
1776861435406505,-2026,-1,-157,-130,25,17,0,0,0,0,0
1776861435408505,-2024,-7,-166,-130,24,17,0,0,0,0,0
1776861435410505,-2025,-7,-167,-128,23,16,0,0,0,0,0
1776861435412505,-2021,-6,-158,-128,22,17,0,0,0,0,0
1776861435414505,-2026,-3,-157,-128,24,17,147,12935,6656,-1032,255
1776865718749068,25,15,0,0,0,0,99,12943,6656,-1288,255
1776865718814607,26,14,0,0,0,0,51,12951,6144,-1032,255
1776865718749074,26,15,0,0,0,0,3,12959,6400,-1032,255
1776865718749058,24,14,0,0,0,0,211,12966,6656,504,0
1776865718814591,24,15,0,0,0,0,163,12974,6912,-776,255
1776865718749074,25,15,0,0,0,0,115,12982,5120,-8,255
1776865718683530,25,16,0,0,0,0,67,12990,5376,-264,255
1776865718617983,23,15,0,0,0,0,19,12998,4608,-2568,255
1776865718683526,25,17,0,0,0,0,227,13005,4864,-776,255
1776865718683526,25,16,0,0,0,0,179,13013,5888,-8,255
1776865718552459,26,15,-8830,50,-2026,1,97,-32513,6655,3840,0
1776861432105000,0,0,-6830,50,-2024,0,103,-32513,6399,3584,0
1776861432105000,0,0,-4830,50,-2024,-6,105,-32513,6399,3840,0
1776861432105000,0,0,-2830,50,-2025,-2,97,-32513,6655,3840,0
1776861432105000,0,0,-831,50,-2027,-2,92,-32513,7167,3584,0
1776861432105000,0,0,1169,51,-2026,-6,92,-32513,6911,3840,0
1776861432105000,0,0,3169,51,-2023,-7,92,-32513,7167,3840,0
1776861432105000,0,0,5169,51,-2024,-7,96,-32513,6911,3840,0
1776861432105000,0,0,7169,51,-2021,-1,95,32767,6655,4096,0
1776861432105000,0,0,9169,51,-2024,-5,85,-32513,6655,4352,0
1776861432105000,0,0,11169,51,-2028,-4,89,-32513,6655,4352,0
1776861435460507,-2026,1,-154,-128,26,17,0,0,0,0,0
1776861435462507,-2025,-3,-156,-127,25,18,0,0,0,0,0
1776861435464507,-2024,-7,-161,-127,26,17,0,0,0,0,0
1776861435466507,-2022,-2,-162,-128,28,16,0,0,0,0,0
1776861435468507,-2029,-2,-160,-127,26,16,0,0,0,0,0
1776861435470507,-2029,-6,-157,-129,24,18,0,0,0,0,0
1776861435472506,-2031,-6,-168,-130,23,18,0,0,0,0,0
1776861435474506,-2028,-6,-154,-128,23,18,0,0,0,0,0
1776861435476506,-2027,-5,-154,-128,24,17,0,0,0,0,0
1776861435478506,-2023,-8,-164,-129,24,16,0,0,0,0,0
1776861435480506,-2026,-3,-159,-129,24,15,97,13193,6144,-2056,255
1776865718749060,26,15,0,0,0,0,49,13201,5632,-1288,255
1776865718617993,24,16,0,0,0,0,1,13209,6144,-776,255
1776865718749064,25,16,0,0,0,0,211,13216,5632,-1544,255
1776865718814603,25,17,0,0,0,0,163,13224,6400,-520,255
1776865718814600,26,15,0,0,0,0,115,13232,6144,-520,255
1776865718749072,26,16,0,0,0,0,67,13240,5376,-1032,255
1776865718617998,27,17,0,0,0,0,19,13248,7168,-1544,255
1776865718683534,28,17,0,0,0,0,227,13255,7168,-1288,255
1776865718749067,24,16,0,0,0,0,178,13263,5632,-1032,255
1776865718814596,23,16,0,0,0,0,130,13271,6656,-1544,255
1776865718814604,24,17,-8367,51,-2019,-4,97,-32513,6911,4096,0
1776861432105000,0,0,-6367,51,-2024,-4,102,-32513,7679,4096,0
1776861432105000,0,0,-4367,51,-2023,-7,100,-32257,6911,4096,0
1776861432105000,0,0,-2365,51,-2019,-1,90,-32513,5887,3840,0
1776861432105000,0,0,-365,51,-2021,-3,102,-32513,6399,3840,0
1776861432105000,0,0,1635,52,-2021,-1,98,-32513,6399,4352,0
1776861432105000,0,0,3635,52,-2016,-1,94,-32513,6911,4352,0
1776861432105000,0,0,5635,52,-2019,-1,97,-32513,6911,4608,0
1776861432105000,0,0,7635,52,-2024,-6,90,-32257,6911,4608,0
1776861432105000,0,0,9635,52,-2024,5,92,32511,6655,3840,0
1776861432105000,0,0,11635,52,-2020,2,96,32767,6399,3584,0
1776861435526506,-2020,-7,-158,-127,26,15,0,0,0,0,0
1776861435528506,-2025,-8,-156,-129,26,15,0,0,0,0,0
1776861435530506,-2030,-5,-163,-131,27,15,0,0,0,0,0
1776861435532506,-2027,-4,-166,-131,27,16,0,0,0,0,0
1776861435534506,-2024,-8,-163,-130,27,15,0,0,0,0,0
1776861435536506,-2022,-12,-160,-129,25,16,0,0,0,0,0
1776861435538505,-2023,-10,-163,-127,25,19,0,0,0,0,0
1776861435540505,-2022,-10,-164,-128,24,17,0,0,0,0,0
1776861435542505,-2020,-7,-167,-130,26,17,0,0,0,0,0
1776861435544505,-2023,-5,-164,-130,24,16,0,0,0,0,0
1776861435546505,-2022,-2,-155,-129,24,16,51,13451,5888,-8,255
1776865718749069,24,17,0,0,0,0,3,13459,6656,-776,255
1776865718683524,27,18,0,0,0,0,211,13466,6400,-2056,255
1776865718617995,28,17,0,0,0,0,163,13474,5888,-1544,255
1776865718683529,26,16,0,0,0,0,115,13482,6144,-520,255
1776865718617994,25,16,0,0,0,0,66,13490,6144,-264,255
1776865718683540,26,16,0,0,0,0,18,13498,5888,-776,255
1776865718749077,27,16,0,0,0,0,226,13505,6400,-1800,255
1776865718683534,25,16,0,0,0,0,178,13513,7168,-1288,255
1776865718749061,25,18,0,0,0,0,129,13521,6656,-1800,255
1776865718814600,25,18,0,0,0,0,81,13529,7168,-1800,255
1776865718683529,23,17,-7901,52,-2021,-13,96,32767,6143,4096,0
1776861432105000,0,0,-5901,52,-2018,-6,97,32767,6655,3840,0
1776861432105000,0,0,-3901,52,-2019,-9,100,-32513,6399,3584,0
1776861432105000,0,0,-1901,52,-2023,-5,93,-32513,6655,3840,0
1776861432105000,0,0,99,53,-2019,-3,100,-32513,6399,4352,0
1776861432105000,0,0,2099,53,-2019,-9,110,-32513,6399,4352,0
1776861432105000,0,0,4098,53,-2024,-9,99,-32513,6655,4096,0
1776861432105000,0,0,6098,53,-2021,-6,99,32767,6911,4352,0
1776861432105000,0,0,8098,53,-2017,-6,99,32767,7167,4096,0
1776861432105000,0,0,10098,53,-2018,-3,94,-32513,6399,4096,0
1776861432105000,0,0,12098,53,-2018,-8,94,32767,6399,4352,0
1776861435592505,-2020,-6,-158,-128,26,16,0,0,0,0,0
1776861435594505,-2022,-3,-157,-128,25,15,0,0,0,0,0
1776861435596505,-2027,-3,-155,-127,25,16,0,0,0,0,0
1776861435598505,-2025,-5,-151,-127,25,17,0,0,0,0,0
1776861435600505,-2028,-4,-158,-127,25,18,0,0,0,0,0
1776861435602505,-2029,-9,-163,-129,24,17,0,0,0,0,0
1776861435604505,-2026,-3,-164,-130,26,16,0,0,0,0,0
1776861435606505,-2023,-6,-155,-127,25,16,0,0,0,0,0
1776861435608505,-2023,-6,-154,-127,23,16,0,0,0,0,0
1776861435610505,-2023,-2,-156,-128,25,16,0,0,0,0,0
1776861435612505,-2027,-3,-155,-129,24,17,3,13709,6144,-1288,255
1776865718683529,25,18,0,0,0,0,211,13716,7168,-1544,255
1776865718683528,22,17,0,0,0,0,163,13724,6912,-1800,255
1776865718683533,23,18,0,0,0,0,115,13732,6912,-1800,255
1776865718683540,24,15,0,0,0,0,67,13740,6144,-1288,255
1776865718683546,27,15,0,0,0,0,19,13748,4864,-1544,255
1776865718749071,26,18,0,0,0,0,227,13755,5120,-2312,255
1776865718617990,25,15,0,0,0,0,179,13763,5632,-1800,255
1776865718486920,25,14,0,0,0,0,131,13771,6400,-1544,255
1776865718617980,25,15,0,0,0,0,83,13779,5888,-1800,255
1776865718683524,24,16,0,0,0,0,35,13787,6912,-2056,255
1776865718749070,25,16,-7438,53,-2025,-8,97,-32257,6911,3840,0
1776861432105000,0,0,-5438,53,-2024,0,99,-32513,6143,4096,0
1776861432105000,0,0,-3438,53,-2024,0,95,-32513,6143,3840,0
1776861432105000,0,0,-1439,53,-2021,-3,93,32767,6399,4096,0
1776861432105000,0,0,561,54,-2022,-8,98,32767,6911,4096,0
1776861432105000,0,0,2561,54,-2021,-9,94,-32513,6655,4096,0
1776861432105000,0,0,4561,54,-2022,-7,102,32767,6399,4352,0
1776861432105000,0,0,6561,54,-2029,-6,107,32767,6655,4608,0
1776861432105000,0,0,8561,54,-2024,-5,99,32767,6911,4096,0
1776861432105000,0,0,10561,54,-2025,-3,95,32511,6911,3840,0
1776861432105000,0,0,12561,54,-2023,-4,93,32255,6655,4096,0
1776861435658507,-2027,-2,-166,-129,23,17,0,0,0,0,0
1776861435660507,-2023,-6,-157,-128,24,16,0,0,0,0,0
1776861435662507,-2025,-11,-158,-127,25,17,0,0,0,0,0
1776861435664507,-2021,-10,-167,-128,25,17,0,0,0,0,0
1776861435666507,-2022,-5,-160,-128,23,17,0,0,0,0,0
1776861435668507,-2026,-5,-158,-128,23,17,0,0,0,0,0
1776861435670507,-2030,-3,-165,-128,25,16,0,0,0,0,0
1776861435672507,-2025,-5,-172,-128,26,16,0,0,0,0,0
1776861435674507,-2021,-2,-164,-127,25,16,0,0,0,0,0
1776861435676507,-2023,-2,-150,-128,22,16,0,0,0,0,0
1776861435678507,-2025,-4,-151,-128,22,16,210,13966,4608,-1032,255
1776865718814600,22,16,0,0,0,0,162,13974,6400,-520,255
1776865718749074,26,17,0,0,0,0,114,13982,6656,-2056,255
1776865718749067,25,16,0,0,0,0,66,13990,5888,-1288,255
1776865718683535,23,16,0,0,0,0,18,13998,5376,-520,255
1776865718618002,22,17,0,0,0,0,226,14005,7168,-520,255
1776865718683533,24,18,0,0,0,0,178,14013,6400,-1032,255
1776865718683523,24,15,0,0,0,0,130,14021,6656,-520,255
1776865718683520,25,16,0,0,0,0,82,14029,6656,-1544,255
1776865718814608,25,17,0,0,0,0,34,14037,7168,-520,255
1776865718749061,24,16,0,0,0,0,242,14044,5632,-520,255
1776865718617982,25,17,-6975,54,-2029,-5,92,32511,6911,4608,0
1776861432105000,0,0,-4975,54,-2022,-13,100,32255,6911,4608,0
1776861432105000,0,0,-2975,54,-2022,-3,101,-32513,6911,4352,0
1776861432105000,0,0,-975,54,-2022,1,97,-32001,6655,4352,0
1776861432105000,0,0,1025,55,-2026,0,97,-32257,7167,4352,0
1776861432105000,0,0,3025,55,-2026,2,96,-32257,7167,4352,0
1776861432105000,0,0,5025,55,-2023,-8,98,-32257,6911,4608,0
1776861432105000,0,0,7025,55,-2023,-5,98,-32001,6655,4608,0
1776861432105000,0,0,9025,55,-2022,0,101,-32001,6655,4352,0
1776861432105000,0,0,11025,55,-2022,-8,101,-32513,6911,3840,0
1776861432105000,0,0,13025,55,-2023,-6,99,-32257,6655,3328,0
1776861435724507,-2022,-7,-166,-127,25,13,0,0,0,0,0
1776861435726507,-2030,-8,-170,-128,24,16,0,0,0,0,0
1776861435728507,-2030,-13,-170,-128,25,15,0,0,0,0,0
1776861435730507,-2025,-12,-164,-129,27,15,0,0,0,0,0
1776861435732507,-2021,-8,-157,-129,25,14,0,0,0,0,0
1776861435734507,-2025,-7,-155,-127,22,15,0,0,0,0,0
1776861435736506,-2026,-7,-146,-128,23,16,0,0,0,0,0
1776861435738506,-2025,-7,-151,-129,25,16,0,0,0,0,0
1776861435740506,-2022,-2,-158,-127,27,16,0,0,0,0,0
1776861435742506,-2023,-6,-166,-127,26,17,0,0,0,0,0
1776861435744506,-2024,-9,-154,-128,25,17,191,14432,4864,-1544,255
1776865718749070,27,15,0,0,0,0,143,14440,5376,-520,255
1776865718880141,26,16,0,0,0,0,95,14448,4864,-1288,255
1776865718945677,23,16,0,0,0,0,47,14456,4864,-776,255
1776865718814609,23,16,0,0,0,0,255,14463,5376,-2824,255
1776865718814601,24,15,0,0,0,0,207,14471,5120,-2312,255
1776865718749070,24,16,0,0,0,0,159,14479,5632,-2568,255
1776865718814601,27,16,0,0,0,0,111,14487,6912,-776,255
1776865718814607,25,15,0,0,0,0,63,14495,7424,504,0
1776865718749072,23,15,0,0,0,0,15,14503,6912,-8,255
1776865718814621,21,15,0,0,0,0,223,14510,6400,-264,255
1776865718749070,23,16,-18767,56,-2026,-5,98,32511,6911,4096,0
1776861432105000,0,0,-16767,56,-2025,-4,95,32511,6399,4352,0
1776861432105000,0,0,-14767,56,-2024,0,95,32767,6655,3840,0
1776861432105000,0,0,-12767,56,-2023,-3,94,32767,6911,4096,0
1776861432105000,0,0,-10767,56,-2028,-1,96,32767,7167,4608,0
1776861432105000,0,0,-8767,56,-2027,-3,106,32767,6911,4608,0
1776861432105000,0,0,-6767,56,-2023,-2,98,32511,6399,4608,0
1776861432105000,0,0,-4767,56,-2020,-5,95,32767,6655,4096,0
1776861432105000,0,0,-2767,56,-2016,-9,96,-32513,6911,4352,0
1776861432105000,0,0,-767,56,-2021,-6,100,-32513,6911,4608,0
1776861432105000,0,0,1233,57,-2015,-5,94,32511,7167,4096,0
1776861435843784,-2018,-6,-155,-128,25,17,0,0,0,0,0
1776861435845784,-2026,-4,-156,-128,20,18,0,0,0,0,0
1776861435847784,-2026,-7,-158,-128,23,15,0,0,0,0,0
1776861435849784,-2022,-6,-168,-128,26,14,0,0,0,0,0
1776861435851784,-2021,-6,-162,-127,25,15,0,0,0,0,0
1776861435853784,-2022,-3,-158,-127,26,16,0,0,0,0,0
1776861435855784,-2025,-3,-153,-127,26,15,0,0,0,0,0
1776861435857784,-2028,-2,-158,-129,25,18,0,0,0,0,0
1776861435859784,-2022,-2,-152,-129,26,18,0,0,0,0,0
1776861435861784,-2024,-5,-151,-128,27,15,0,0,0,0,0
1776861435863784,-2023,-7,-152,-127,27,15,143,14690,7168,-1800,255
1776865718880136,25,15,0,0,0,0,95,14698,6912,-776,255
1776865718880145,23,15,0,0,0,0,47,14706,6400,-264,255
1776865718749084,23,14,0,0,0,0,255,14713,7424,-1288,255
1776865718814614,26,15,0,0,0,0,207,14721,6656,-264,255
1776865718749077,25,17,0,0,0,0,159,14729,6656,-264,255
1776865718814611,23,15,0,0,0,0,111,14737,6144,-264,255
1776865718814609,25,15,0,0,0,0,63,14745,5632,-520,255
1776865718814612,27,16,0,0,0,0,15,14753,6144,-776,255
1776865718814608,28,17,0,0,0,0,223,14760,5888,-1032,255
1776865718814608,25,17,0,0,0,0,175,14768,6656,-1032,255
1776865718814600,24,16,-18303,57,-2023,-4,97,-32257,6399,4096,0
1776861432105000,0,0,-16303,57,-2026,-8,98,-32001,6399,4352,0
1776861432105000,0,0,-14303,57,-2022,-6,88,-32001,6399,4864,0
1776861432105000,0,0,-12303,57,-2019,-5,95,-32257,6911,4864,0
1776861432105000,0,0,-10303,57,-2018,-4,97,-32513,6911,4352,0
1776861432105000,0,0,-8303,57,-2026,-10,100,-32513,6399,4352,0
1776861432105000,0,0,-6303,57,-2024,-11,99,-32001,6143,4352,0
1776861432105000,0,0,-4303,57,-2022,-3,98,-32257,5631,4352,0
1776861432105000,0,0,-2303,57,-2028,-1,97,-32513,5631,4352,0
1776861432105000,0,0,-303,57,-2024,-7,94,-32513,6655,3328,0
1776861432105000,0,0,1697,58,-2026,-5,90,-32513,7167,3584,0
1776861435909785,-2023,0,-157,-128,28,15,0,0,0,0,0
1776861435911785,-2024,-2,-165,-129,29,16,0,0,0,0,0
1776861435913785,-2026,-3,-164,-129,28,16,0,0,0,0,0
1776861435915785,-2025,1,-159,-130,27,17,0,0,0,0,0
1776861435917785,-2025,-5,-159,-128,24,16,0,0,0,0,0
1776861435919785,-2023,0,-147,-129,24,15,0,0,0,0,0
1776861435921785,-2023,-5,-150,-128,25,14,0,0,0,0,0
1776861435923785,-2017,-6,-155,-125,25,16,0,0,0,0,0
1776861435925785,-2023,-4,-155,-128,25,17,0,0,0,0,0
1776861435927785,-2023,-1,-163,-127,28,15,0,0,0,0,0
1776861435929785,-2023,-3,-165,-128,27,17,97,14948,6400,-1288,255
1776865718617990,26,16,0,0,0,0,49,14956,4608,-1032,255
1776865718683527,26,15,0,0,0,0,1,14964,6400,-1032,255
1776865718683526,26,17,0,0,0,0,209,14971,4864,-1544,255
1776865718749057,27,16,0,0,0,0,161,14979,4864,-2568,255
1776865718814591,25,17,0,0,0,0,113,14987,5632,-1288,255
1776865718683534,24,20,0,0,0,0,65,14995,6400,-2056,255
1776865718749076,25,18,0,0,0,0,17,15003,4864,-1032,255
1776865718880141,26,17,0,0,0,0,225,15010,5120,-776,255
1776865718749066,26,18,0,0,0,0,177,15018,6144,-520,255
1776865718749047,26,15,0,0,0,0,129,15026,6656,-520,255
1776865718749048,25,15,-17840,58,-2024,-3,81,-32513,6911,4352,0
1776861432105000,0,0,-15840,58,-2024,-3,87,-32513,6399,4096,0
1776861432105000,0,0,-13840,58,-2026,0,103,-32513,6143,4096,0
1776861432105000,0,0,-11841,58,-2025,-3,95,-32513,6399,4096,0
1776861432105000,0,0,-9841,58,-2021,-5,97,-32513,6655,4096,0
1776861432105000,0,0,-7841,58,-2022,-6,90,-32001,6655,4608,0
1776861432105000,0,0,-5841,58,-2026,-11,85,-32001,5887,4608,0
1776861432105000,0,0,-3841,58,-2024,-5,93,-32257,5631,4096,0
1776861432105000,0,0,-1841,58,-2023,-10,90,-32257,6143,4352,0
1776861432105000,0,0,159,59,-2025,-2,91,-32001,6399,4608,0
1776861432105000,0,0,2159,59,-2023,-4,91,32767,6911,4096,0
1776861435975785,-2027,-10,-159,-129,26,15,0,0,0,0,0
1776861435977785,-2025,-4,-160,-128,26,16,0,0,0,0,0
1776861435979785,-2022,-6,-160,-128,25,16,0,0,0,0,0
1776861435981785,-2020,-8,-156,-129,25,14,0,0,0,0,0
1776861435983785,-2019,-8,-154,-129,26,16,0,0,0,0,0
1776861435985785,-2025,-9,-155,-130,25,17,0,0,0,0,0
1776861435987785,-2018,-3,-166,-130,22,18,0,0,0,0,0
1776861435989785,-2025,-1,-160,-129,25,17,0,0,0,0,0
1776861435991785,-2025,-1,-162,-126,28,17,0,0,0,0,0
1776861435993785,-2022,-2,-159,-126,28,17,0,0,0,0,0
1776861435995785,-2024,-6,-157,-128,25,17,48,15206,6656,-1032,255
1776865718814607,24,18,0,0,0,0,0,15214,6400,-1544,255
1776865718880140,24,18,0,0,0,0,208,15221,5888,-776,255
1776865718814605,26,17,0,0,0,0,160,15229,5632,-1544,255
1776865718749062,28,18,0,0,0,0,112,15237,5888,-1288,255
1776865718880126,28,18,0,0,0,0,64,15245,5888,-1032,255
1776865718814605,27,17,0,0,0,0,16,15253,5888,-776,255
1776865718880136,26,17,0,0,0,0,224,15260,6656,-1032,255
1776865718814599,25,15,0,0,0,0,176,15268,7168,-520,255
1776865718749060,23,17,0,0,0,0,128,15276,8704,-520,255
1776865718683529,25,17,0,0,0,0,80,15284,8192,-520,255
1776865718617997,28,16,-17377,59,-2021,-6,96,-32513,6655,4608,0
1776861432105000,0,0,-15377,59,-2024,-4,91,32767,5887,4352,0
1776861432105000,0,0,-13377,59,-2024,-5,109,32767,6143,3840,0
1776861432105000,0,0,-11377,59,-2024,-6,104,32767,6399,3840,0
1776861432105000,0,0,-9377,59,-2023,-5,93,-32257,7167,3840,0
1776861432105000,0,0,-7377,59,-2019,-7,84,-32257,7423,4096,0
1776861432105000,0,0,-5377,59,-2023,-11,94,32255,7167,4096,0
1776861432105000,0,0,-3377,59,-2022,-10,92,32511,6911,4096,0
1776861432105000,0,0,-1377,59,-2025,-12,95,-32513,6911,4352,0
1776861432105000,0,0,623,60,-2018,-9,100,-32513,6911,4352,0
1776861432105000,0,0,2623,60,-2019,-6,111,-32513,6911,4608,0
1776861436041785,-2024,-3,-164,-128,26,18,0,0,0,0,0
1776861436043785,-2027,-7,-160,-130,25,17,0,0,0,0,0
1776861436045785,-2016,-6,-155,-131,24,16,0,0,0,0,0
1776861436047785,-2016,-3,-160,-128,25,16,0,0,0,0,0
1776861436049785,-2021,0,-168,-128,25,17,0,0,0,0,0
1776861436051785,-2024,-7,-170,-128,23,17,0,0,0,0,0
1776861436053785,-2021,-7,-168,-127,21,16,0,0,0,0,0
1776861436055785,-2026,-4,-167,-126,22,17,0,0,0,0,0
1776861436057785,-2024,-6,-176,-127,25,17,0,0,0,0,0
1776861436059785,-2021,-7,-164,-127,28,17,0,0,0,0,0
1776861436061785,-2024,-9,-161,-126,29,15,0,15464,5888,-1032,255
1776865718814609,26,17,0,0,0,0,208,15471,6144,-264,255
1776865718749067,23,17,0,0,0,0,160,15479,6400,-1288,255
1776865718814595,23,16,0,0,0,0,112,15487,6912,-1544,255
1776865718749056,24,17,0,0,0,0,64,15495,6656,-1288,255
1776865718814592,24,16,0,0,0,0,16,15503,5376,-776,255
1776865718814594,24,16,0,0,0,0,224,15510,7168,-264,255
1776865718749065,23,15,0,0,0,0,176,15518,6912,-776,255
1776865718617996,23,16,0,0,0,0,128,15526,7680,-1544,255
1776865718683533,27,16,0,0,0,0,80,15534,6656,-1544,255
1776865718683532,27,16,0,0,0,0,32,15542,5376,-2824,255
1776865718552456,25,16,-16913,60,-2025,-14,85,32767,6399,4608,0
1776861432105000,0,0,-14913,60,-2027,-9,89,-32513,6911,5120,0
1776861432105000,0,0,-12913,60,-2029,-3,88,32767,6399,4864,0
1776861432105000,0,0,-10913,60,-2023,-8,92,-32513,6399,4352,0
1776861432105000,0,0,-8913,60,-2023,-7,94,-32513,6655,4352,0
1776861432105000,0,0,-6911,60,-2016,-5,93,32767,6655,4608,0
1776861432105000,0,0,-4911,60,-2017,-7,83,-32513,6655,4352,0
1776861432105000,0,0,-2911,60,-2017,-4,86,-32001,6911,4352,0
1776861432105000,0,0,-911,60,-2022,-2,101,-32513,6655,4352,0
1776861432105000,0,0,1089,61,-2019,-3,100,-32513,6655,3840,0
1776861432105000,0,0,3089,61,-2019,-4,92,32511,6911,3840,0
1776861436107784,-2025,-8,-163,-130,25,15,0,0,0,0,0
1776861436109784,-2023,-9,-163,-129,25,16,0,0,0,0,0
1776861436111783,-2023,-10,-161,-128,24,15,0,0,0,0,0
1776861436113783,-2022,-5,-157,-128,25,14,0,0,0,0,0
1776861436115783,-2024,-4,-150,-127,22,15,0,0,0,0,0
1776861436117783,-2025,-6,-153,-127,23,17,0,0,0,0,0
1776861436119783,-2023,-9,-162,-126,26,18,0,0,0,0,0
1776861436121783,-2018,-4,-168,-127,28,18,0,0,0,0,0
1776861436123783,-2024,-5,-162,-128,24,17,0,0,0,0,0
1776861436125783,-2029,-4,-153,-127,22,17,0,0,0,0,0
1776861436127783,-2028,-5,-147,-126,23,16,207,15721,4352,-1032,255
1776865718683528,27,15,0,0,0,0,159,15729,4352,-520,255
1776865718617970,27,14,0,0,0,0,111,15737,5120,-1544,255
1776865718749062,25,15,0,0,0,0,63,15745,6400,-1800,255
1776865718749058,25,15,0,0,0,0,15,15753,5888,-1032,255
1776865718814596,25,15,0,0,0,0,223,15760,6400,-2312,255
1776865718749065,26,16,0,0,0,0,175,15768,5120,-1800,255
1776865718617990,28,16,0,0,0,0,127,15776,5888,-1800,255
1776865718617991,26,18,0,0,0,0,79,15784,5888,-1032,255
1776865718683521,22,18,0,0,0,0,31,15792,5120,-264,255
1776865718749057,23,15,0,0,0,0,239,15799,5376,-1288,255
1776865718683531,23,15,-31252,62,-2028,-5,96,32511,7167,3840,0
1776861432105000,0,0,-29252,62,-2025,-2,94,-32513,6911,3840,0
1776861432105000,0,0,-27252,62,-2024,-6,95,-32257,6143,4096,0
1776861432105000,0,0,-25252,62,-2026,-4,94,-32513,5887,4096,0
1776861432105000,0,0,-23252,62,-2027,0,98,-32257,6143,4352,0
1776861432105000,0,0,-21250,62,-2028,-4,103,-32257,6399,3840,0
1776861432105000,0,0,-19250,62,-2025,-5,95,-32257,6399,3840,0
1776861432105000,0,0,-17250,62,-2024,-2,89,32767,6655,3840,0
1776861432105000,0,0,-15250,62,-2025,1,96,32767,6911,4352,0
1776861432105000,0,0,-13250,62,-2026,-6,92,-32257,6911,4096,0
1776861432105000,0,0,-11250,62,-2028,-3,96,32767,6399,4096,0
1776861436224517,-2025,-1,-157,-129,25,15,0,0,0,0,0
1776861436226517,-2029,1,-158,-127,28,16,0,0,0,0,0
1776861436228517,-2025,2,-159,-126,24,16,0,0,0,0,0
1776861436230516,-2027,0,-165,-128,23,16,0,0,0,0,0
1776861436232516,-2025,-4,-155,-127,24,16,0,0,0,0,0
1776861436234519,-2025,-2,-163,-128,24,16,0,0,0,0,0
1776861436236518,-2024,-1,-160,-129,26,17,0,0,0,0,0
1776861436238518,-2026,2,-161,-129,27,16,0,0,0,0,0
1776861436240518,-2024,-4,-160,-128,25,17,0,0,0,0,0
1776861436242518,-2018,-3,-160,-127,22,16,0,0,0,0,0
1776861436244518,-2021,-7,-169,-128,24,16,205,16177,7680,-2056,255
1776865718880135,25,14,0,0,0,0,157,16185,7168,248,0
1776865718945672,23,14,0,0,0,0,109,16193,4864,-520,255
1776865718814602,24,16,0,0,0,0,61,16201,4608,-1544,255
1776865718749060,27,16,0,0,0,0,13,16209,6144,-1544,255
1776865718814590,27,17,0,0,0,0,221,16216,6912,-776,255
1776865718814590,26,16,0,0,0,0,173,16224,7424,-1288,255
1776865718880130,28,16,0,0,0,0,125,16232,7168,-1288,255
1776865718749067,23,17,0,0,0,0,77,16240,7680,-264,255
1776865718618004,22,17,0,0,0,0,29,16248,5888,-8,255
1776865718683537,23,16,0,0,0,0,237,16255,5632,-1032,255
1776865718683538,23,15,-30788,63,-2026,-3,99,32511,6655,3840,0
1776861432105000,0,0,-28788,63,-2021,0,100,32767,6399,3840,0
1776861432105000,0,0,-26788,63,-2023,-4,98,-32513,6399,3328,0
1776861432105000,0,0,-24786,63,-2024,-8,103,-32513,6143,3328,0
1776861432105000,0,0,-22786,63,-2027,-12,97,-32513,6399,3840,0
1776861432105000,0,0,-20786,63,-2028,-11,97,-32513,6655,4096,0
1776861432105000,0,0,-18786,63,-2024,-9,101,32511,6655,4352,0
1776861432105000,0,0,-16786,63,-2022,-11,101,32511,6143,4096,0
1776861432105000,0,0,-14786,63,-2026,-3,97,-32513,6143,4352,0
1776861432105000,0,0,-12786,63,-2024,-4,106,-32513,6655,4608,0
1776861432105000,0,0,-10787,63,-2026,-6,87,-32257,6399,4352,0
1776861436290517,-2023,-4,-167,-129,24,15,0,0,0,0,0
1776861436292517,-2021,-5,-157,-129,23,15,0,0,0,0,0
1776861436294517,-2023,-5,-153,-128,22,16,0,0,0,0,0
1776861436296517,-2024,-9,-162,-126,24,16,0,0,0,0,0
1776861436298517,-2026,-5,-154,-128,26,18,0,0,0,0,0
1776861436300517,-2027,-4,-151,-128,26,18,0,0,0,0,0
1776861436302517,-2025,-7,-158,-128,24,17,0,0,0,0,0
1776861436304517,-2029,0,-156,-130,24,17,0,0,0,0,0
1776861436306516,-2027,-1,-152,-128,26,16,0,0,0,0,0
1776861436308516,-2025,-7,-149,-127,26,18,0,0,0,0,0
1776861436310516,-2020,-4,-161,-128,25,19,158,16435,6656,-2312,255
1776865718749057,24,18,0,0,0,0,110,16443,6656,-2312,255
1776865718749068,24,18,0,0,0,0,62,16451,6656,-1032,255
1776865718683540,25,15,0,0,0,0,14,16459,6656,-1032,255
1776865718552463,26,14,0,0,0,0,222,16466,6400,-520,255
1776865718552459,25,15,0,0,0,0,174,16474,5376,-8,255
1776865718617998,22,15,0,0,0,0,125,16482,5120,-1032,255
1776865718749063,24,16,0,0,0,0,77,16490,5376,-1800,255
1776865718814601,24,16,0,0,0,0,29,16498,6400,-2568,255
1776865718749069,26,17,0,0,0,0,237,16505,7936,-2568,255
1776865718749066,27,17,0,0,0,0,189,16513,8448,-1032,255
1776865718814600,24,16,-30324,64,-2020,-7,99,-32001,5631,3328,0
1776861432105000,0,0,-28324,64,-2024,-8,99,32767,6399,3584,0
1776861432105000,0,0,-26324,64,-2023,-8,102,-32513,6911,4352,0
1776861432105000,0,0,-24324,64,-2021,-4,97,-32257,7167,4352,0
1776861432105000,0,0,-22324,64,-2015,-7,95,-32001,6655,4352,0
1776861432105000,0,0,-20324,64,-2017,-11,92,-32257,6143,4096,0
1776861432105000,0,0,-18324,64,-2022,-10,95,-32257,6655,4096,0
1776861432105000,0,0,-16324,64,-2023,-5,98,-32257,6911,4352,0
1776861432105000,0,0,-14324,64,-2024,-6,96,32767,7167,4608,0
1776861432105000,0,0,-12324,64,-2021,-5,99,-32513,6911,4352,0
1776861432105000,0,0,-10324,64,-2021,-4,96,-32513,6911,4096,0
1776861436356518,-2026,-9,-167,-128,25,17,0,0,0,0,0
1776861436358518,-2029,-6,-160,-128,25,16,0,0,0,0,0
1776861436360518,-2031,-8,-156,-127,26,16,0,0,0,0,0
1776861436362518,-2026,-5,-154,-129,26,17,0,0,0,0,0
1776861436364518,-2028,-7,-153,-128,25,16,0,0,0,0,0
1776861436366518,-2025,-5,-158,-127,23,17,0,0,0,0,0
1776861436368518,-2021,-4,-160,-127,25,17,0,0,0,0,0
1776861436370518,-2021,-4,-159,-127,25,15,0,0,0,0,0
1776861436372518,-2026,-6,-153,-129,26,16,0,0,0,0,0
1776861436374518,-2023,-5,-152,-129,26,17,0,0,0,0,0
1776861436376518,-2020,-7,-155,-127,24,17,109,16693,6656,-2056,255
1776865718749076,25,17,0,0,0,0,61,16701,5632,-776,255
1776865718749068,26,16,0,0,0,0,13,16709,6400,-1288,255
1776865718617994,28,16,0,0,0,0,221,16716,8192,-776,255
1776865718617994,25,17,0,0,0,0,173,16724,8704,-1288,255
1776865718814595,24,17,0,0,0,0,125,16732,7680,-520,255
1776865718749057,25,16,0,0,0,0,77,16740,6656,-776,255
1776865718749056,26,17,0,0,0,0,29,16748,6144,-1032,255
1776865718814594,26,16,0,0,0,0,237,16755,6400,-520,255
1776865718814592,25,17,0,0,0,0,189,16763,6144,-264,255
1776865718552458,26,17,0,0,0,0,141,16771,5888,-776,255
1776865718617998,24,16,-29860,65,-2022,-2,108,-32513,6399,3840,0
1776861432105000,0,0,-27860,65,-2021,-4,100,-32513,5887,4096,0
1776861432105000,0,0,-25860,65,-2024,-6,94,32767,6143,4096,0
1776861432105000,0,0,-23860,65,-2023,-3,97,32511,6911,4608,0
1776861432105000,0,0,-21860,65,-2029,-2,95,-32257,6911,4352,0
1776861432105000,0,0,-19860,65,-2025,-7,101,-32513,6655,4096,0
1776861432105000,0,0,-17860,65,-2025,-11,102,32767,6399,4352,0
1776861432105000,0,0,-15860,65,-2026,-9,109,32511,6655,4608,0
1776861432105000,0,0,-13860,65,-2022,-9,99,32767,7167,4352,0
1776861432105000,0,0,-11860,65,-2019,-6,98,-32513,6655,4352,0
1776861432105000,0,0,-9860,65,-2021,-4,98,-32257,6143,4352,0
1776861436422518,-2022,-4,-164,-127,23,18,0,0,0,0,0
1776861436424518,-2026,-1,-165,-128,22,17,0,0,0,0,0
1776861436426518,-2025,-4,-159,-127,23,15,0,0,0,0,0
1776861436428518,-2030,-9,-162,-128,23,15,0,0,0,0,0
1776861436430518,-2022,-9,-154,-128,22,17,0,0,0,0,0
1776861436432518,-2024,-11,-158,-127,21,17,0,0,0,0,0
1776861436434518,-2021,-8,-162,-127,25,16,0,0,0,0,0
1776861436436518,-2026,-4,-165,-127,27,17,0,0,0,0,0
1776861436438518,-2025,-9,-156,-128,26,18,0,0,0,0,0
1776861436440518,-2025,-3,-157,-128,24,18,0,0,0,0,0
1776861436442518,-2020,-5,-162,-128,23,19,61,16951,5632,-776,255
1776865718749075,26,17,0,0,0,0,13,16959,6400,248,0
1776865718749074,26,18,0,0,0,0,221,16966,6144,-1032,255
1776865718617988,23,17,0,0,0,0,173,16974,6400,-2312,255
1776865718683519,23,16,0,0,0,0,125,16982,6144,-1800,255
1776865718617988,24,16,0,0,0,0,77,16990,7168,-1800,255
1776865718617997,23,16,0,0,0,0,29,16998,7680,-1032,255
1776865718683529,24,15,0,0,0,0,237,17005,6144,-1800,255
1776865718683536,26,16,0,0,0,0,189,17013,5888,-1288,255
1776865718618007,26,17,0,0,0,0,141,17021,5632,-520,255
1776865718552464,27,17,0,0,0,0,93,17029,6656,-1544,255
1776865718617993,26,17,-29396,66,-2021,-6,95,32511,6655,4608,0
1776861432105000,0,0,-27396,66,-2022,-10,96,-32513,6399,4096,0
1776861432105000,0,0,-25396,66,-2020,-5,111,-32513,5887,4096,0
1776861432105000,0,0,-23396,66,-2024,-6,104,-32257,6399,4608,0
1776861432105000,0,0,-21396,66,-2022,-9,105,-32257,6655,4608,0
1776861432105000,0,0,-19396,66,-2025,-3,99,-32001,7167,4096,0
1776861432105000,0,0,-17396,66,-2025,-3,94,-32257,7423,4096,0
1776861432105000,0,0,-15396,66,-2023,-6,92,-32513,6911,3584,0
1776861432105000,0,0,-13396,66,-2020,-2,95,32767,6143,3584,0
1776861432105000,0,0,-11396,66,-2022,-4,95,32767,6911,4096,0
1776861432105000,0,0,-9396,66,-2022,-9,103,-32513,6655,4352,0
1776861436488518,-2022,-8,-163,-127,26,15,0,0,0,0,0
1776861436490518,-2025,-4,-167,-126,23,14,0,0,0,0,0
1776861436492518,-2024,-6,-166,-126,22,16,0,0,0,0,0
1776861436494518,-2024,-6,-149,-128,25,18,0,0,0,0,0
1776861436496518,-2024,-7,-159,-130,27,17,0,0,0,0,0
1776861436498518,-2021,-5,-155,-127,27,16,0,0,0,0,0
1776861436500518,-2020,-7,-158,-128,25,16,0,0,0,0,0
1776861436502518,-2022,-7,-159,-129,23,18,0,0,0,0,0
1776861436504518,-2023,1,-153,-128,24,16,0,0,0,0,0
1776861436506518,-2024,2,-153,-127,25,15,0,0,0,0,0
1776861436508518,-2025,2,-143,-130,26,16,13,17209,6400,-1800,255
1776865718683542,26,17,0,0,0,0,221,17216,6912,-2824,255
1776865718749069,24,17,0,0,0,0,173,17224,5888,-1288,255
1776865718749068,26,17,0,0,0,0,125,17232,3840,-1800,255
1776865718749061,27,16,0,0,0,0,77,17240,5120,-1800,255
1776865718814605,26,15,0,0,0,0,29,17248,6912,-1800,255
1776865718749063,23,15,0,0,0,0,237,17255,7424,-1288,255
1776865718683528,23,16,0,0,0,0,189,17263,6656,-776,255
1776865718749072,23,17,0,0,0,0,141,17271,5632,-1032,255
1776865718814601,23,18,0,0,0,0,93,17279,5888,-1032,255
1776865718749057,26,18,0,0,0,0,45,17287,5632,-1544,255
1776865718749060,27,17,-28931,67,-2027,-7,89,32767,6655,4352,0
1776861432105000,0,0,-26931,67,-2027,-6,98,-32257,6655,4608,0
1776861432105000,0,0,-24931,67,-2025,-7,100,-32257,6399,4096,0
1776861432105000,0,0,-22931,67,-2025,-6,93,-32257,6655,4352,0
1776861432105000,0,0,-20931,67,-2020,-1,98,-32513,7167,4096,0
1776861432105000,0,0,-18931,67,-2020,-4,99,-32513,6399,4096,0
1776861432105000,0,0,-16931,67,-2021,-1,102,-32513,5631,3840,0
1776861432105000,0,0,-14931,67,-2020,2,97,-32257,5887,4352,0
1776861432105000,0,0,-12931,67,-2019,2,88,-32513,6655,4352,0
1776861432105000,0,0,-10931,67,-2021,3,89,-32513,6399,3840,0
1776861432105000,0,0,-8931,67,-2021,-4,97,32511,6399,3584,0
1776861436602601,-2022,-9,-159,-129,26,16,0,0,0,0,0
1776861436604601,-2030,-4,-151,-128,24,17,0,0,0,0,0
1776861436606601,-2028,-3,-159,-129,26,17,0,0,0,0,0
1776861436608601,-2024,-8,-159,-129,26,17,0,0,0,0,0
1776861436610601,-2024,-6,-160,-129,25,16,0,0,0,0,0
1776861436612601,-2025,-6,-150,-128,27,16,0,0,0,0,0
1776861436614601,-2027,-9,-165,-129,27,15,0,0,0,0,0
1776861436616601,-2021,-5,-158,-130,26,15,0,0,0,0,0
1776861436618601,-2024,-4,-154,-129,25,15,0,0,0,0,0
1776861436620601,-2025,-5,-157,-129,24,17,0,0,0,0,0
1776861436622601,-2017,-7,-159,-128,25,17,179,17654,5632,-1800,255
1776865718880131,23,19,0,0,0,0,131,17662,6144,-1032,255
1776865718749063,25,18,0,0,0,0,83,17670,5632,248,0
1776865718683536,25,16,0,0,0,0,35,17678,4608,-776,255
1776865718683528,25,15,0,0,0,0,243,17685,5632,-1288,255
1776865718617984,26,15,0,0,0,0,195,17693,6656,-1544,255
1776865718683524,27,17,0,0,0,0,147,17701,6912,-1800,255
1776865718814600,25,16,0,0,0,0,99,17709,6144,-3080,255
1776865718749070,24,16,0,0,0,0,51,17717,6656,-2568,255
1776865718749074,23,16,0,0,0,0,3,17725,5888,-776,255
1776865718814608,23,15,0,0,0,0,211,17732,6400,-8,255
1776865718814606,26,16,19618,69,-2024,-2,99,-32257,6399,4096,0
1776861432105000,0,0,21618,69,-2021,-6,110,32767,6143,4352,0
1776861432105000,0,0,23618,69,-2024,-8,109,32767,6399,4096,0
1776861432105000,0,0,25618,69,-2021,-5,100,-32513,7167,3584,0
1776861432105000,0,0,27618,69,-2019,-7,93,-32513,7423,4096,0
1776861432105000,0,0,29618,69,-2023,-8,94,32767,6911,3840,0
1776861432105000,0,0,31618,69,-2029,-6,95,-32513,6399,3840,0
1776861432105000,0,0,-31918,69,-2027,0,98,32767,6143,3840,0
1776861432105000,0,0,-29919,69,-2025,2,93,-32513,6911,3072,0
1776861432105000,0,0,-27919,69,-2025,-4,91,-32513,7167,3328,0
1776861432105000,0,0,-25919,69,-2021,-6,95,-32513,6399,3584,0
1776861436668603,-2024,-7,-158,-128,24,15,0,0,0,0,0
1776861436670603,-2022,-8,-165,-130,25,16,0,0,0,0,0
1776861436672603,-2022,0,-156,-130,24,15,0,0,0,0,0
1776861436674602,-2023,-5,-150,-129,24,16,0,0,0,0,0
1776861436676602,-2020,-7,-157,-127,25,17,0,0,0,0,0
1776861436678602,-2021,-7,-161,-127,25,15,0,0,0,0,0
1776861436680602,-2025,-10,-153,-128,24,15,0,0,0,0,0
1776861436682602,-2029,-9,-157,-128,25,17,0,0,0,0,0
1776861436684602,-2029,-11,-166,-128,25,16,0,0,0,0,0
1776861436686602,-2024,-11,-166,-129,27,18,0,0,0,0,0
1776861436688602,-2022,-6,-161,-127,25,17,129,17912,3840,-2824,255
1776865718749059,24,15,0,0,0,0,81,17920,3072,-1800,255
1776865718683523,24,17,0,0,0,0,33,17928,4352,-1032,255
1776865718749061,24,17,0,0,0,0,241,17935,7168,-1544,255
1776865718814603,24,15,0,0,0,0,193,17943,7680,-520,255
1776865718749068,23,17,0,0,0,0,145,17951,6912,248,0
1776865718814606,22,17,0,0,0,0,97,17959,7936,-776,255
1776865718749061,21,17,0,0,0,0,49,17967,8448,-776,255
1776865718749051,25,16,0,0,0,0,4,17975,6400,-776,255
1776865718683526,25,15,0,0,0,0,212,17982,5376,-3080,255
1776865718880138,24,18,0,0,0,0,163,17990,6144,248,0
1776865718880140,23,18,20082,70,-2028,-2,101,32767,6655,4096,0
1776861432105000,0,0,22082,70,-2032,-5,91,-32513,7167,4096,0
1776861432105000,0,0,24082,70,-2024,-7,97,-32257,7423,4352,0
1776861432105000,0,0,26082,70,-2017,-9,90,-32257,6911,3840,0
1776861432105000,0,0,28082,70,-2019,-6,99,-32513,6143,3840,0
1776861432105000,0,0,30082,70,-2022,-7,109,-32513,6399,3840,0
1776861432105000,0,0,32082,70,-2020,-6,109,-32513,6655,4096,0
1776861432105000,0,0,-31454,70,-2022,-10,93,32767,6655,4352,0
1776861432105000,0,0,-29454,70,-2019,-11,90,32511,6911,4352,0
1776861432105000,0,0,-27454,70,-2017,-7,103,-32513,6655,4352,0
1776861432105000,0,0,-25454,70,-2022,-9,102,-31745,6399,4096,0
1776861436734601,-2027,-8,-155,-127,23,16,0,0,0,0,0
1776861436736601,-2024,-8,-156,-128,24,16,0,0,0,0,0
1776861436738601,-2029,-8,-161,-128,25,17,0,0,0,0,0
1776861436740601,-2025,-6,-160,-126,25,18,0,0,0,0,0
1776861436742601,-2024,-9,-164,-127,24,17,0,0,0,0,0
1776861436744601,-2021,-4,-156,-128,24,16,0,0,0,0,0
1776861436746601,-2022,-5,-149,-128,23,15,0,0,0,0,0
1776861436748601,-2023,-6,-155,-128,25,16,0,0,0,0,0
1776861436750601,-2020,-7,-163,-127,25,17,0,0,0,0,0
1776861436752601,-2023,-6,-155,-128,25,16,0,0,0,0,0
1776861436754601,-2029,0,-151,-129,25,17,83,18170,6144,504,0
1776865718749055,24,18,0,0,0,0,35,18178,6912,-264,255
1776865718749054,24,18,0,0,0,0,243,18185,8448,-776,255
1776865718683527,22,17,0,0,0,0,195,18193,7168,-2824,255
1776865718683535,22,14,0,0,0,0,147,18201,6656,-3336,255
1776865718683534,24,16,0,0,0,0,99,18209,6912,-264,255
1776865718814595,26,18,0,0,0,0,51,18217,6912,-8,255
1776865718683526,27,17,0,0,0,0,3,18225,5632,-1800,255
1776865718683527,26,16,0,0,0,0,211,18232,6912,-264,255
1776865718749062,25,17,0,0,0,0,163,18240,6912,248,0
1776865718683528,25,17,0,0,0,0,115,18248,5376,-1800,255
1776865718683526,24,17,20546,71,-2027,-8,96,-32513,6399,3840,0
1776861432105000,0,0,22546,71,-2025,-4,92,32511,6655,3840,0
1776861432105000,0,0,24546,71,-2021,-3,100,32255,6655,4096,0
1776861432105000,0,0,26546,71,-2021,-7,100,32767,7423,3840,0
1776861432105000,0,0,28546,71,-2025,-5,91,-32513,7423,4096,0
1776861432105000,0,0,30546,71,-2023,-1,99,-32513,6911,4352,0
1776861432105000,0,0,32545,71,-2023,-5,91,-32513,6143,4096,0
1776861432105000,0,0,-30991,71,-2024,-9,99,-32001,6399,3584,0
1776861432105000,0,0,-28991,71,-2018,-4,98,-32001,6143,3584,0
1776861432105000,0,0,-26991,71,-2016,1,87,-32257,6399,4352,0
1776861432105000,0,0,-24991,71,-2018,4,94,32767,6399,4096,0
1776861436800603,-2029,-1,-164,-128,23,15,0,0,0,0,0
1776861436802603,-2028,-3,-160,-128,24,15,0,0,0,0,0
1776861436804603,-2030,-1,-155,-127,22,16,0,0,0,0,0
1776861436806603,-2030,-3,-152,-127,23,16,0,0,0,0,0
1776861436808603,-2031,-9,-149,-128,25,17,0,0,0,0,0
1776861436810602,-2025,-4,-162,-127,26,16,0,0,0,0,0
1776861436812602,-2021,-7,-160,-128,25,17,0,0,0,0,0
1776861436814602,-2026,-4,-163,-128,26,16,0,0,0,0,0
1776861436816602,-2026,-5,-168,-127,28,16,0,0,0,0,0
1776861436818602,-2023,-4,-161,-129,27,15,0,0,0,0,0
1776861436820602,-2021,0,-154,-130,27,16,33,18428,5632,-1288,255
1776865718749070,25,16,0,0,0,0,241,18435,4608,-1544,255
1776865718814607,26,17,0,0,0,0,193,18443,4864,-1032,255
1776865718749062,26,17,0,0,0,0,145,18451,5888,-1032,255
1776865718749068,26,16,0,0,0,0,97,18459,5632,-264,255
1776865718683530,28,16,0,0,0,0,49,18467,5376,-1288,255
1776865718749062,29,17,0,0,0,0,1,18475,6400,-2056,255
1776865718683526,26,17,0,0,0,0,209,18482,5632,-264,255
1776865718683526,25,17,0,0,0,0,163,18490,5888,-776,255
1776865718749078,26,17,0,0,0,0,115,18498,6656,504,0
1776865718683537,27,16,0,0,0,0,67,18506,7680,504,0
1776865718617993,26,16,21010,72,-2017,-6,94,32511,6399,4096,0
1776861432105000,0,0,23010,72,-2022,-7,94,32767,6143,4352,0
1776861432105000,0,0,25010,72,-2019,-2,97,-32257,6399,4352,0
1776861432105000,0,0,27010,72,-2029,-3,96,-32513,6655,4608,0
1776861432105000,0,0,29010,72,-2020,-7,88,-32257,6911,4864,0
1776861432105000,0,0,31010,72,-2020,-9,93,-32513,6911,4352,0
1776861432105000,0,0,-32526,72,-2026,-4,104,-32257,6399,4352,0
1776861432105000,0,0,-30526,72,-2026,-4,96,-32513,6143,4352,0
1776861432105000,0,0,-28526,72,-2020,-8,112,-32257,6143,4096,0
1776861432105000,0,0,-26526,72,-2021,-7,107,32767,7167,4608,0
1776861432105000,0,0,-24526,72,-2023,-4,98,32511,7167,4352,0
1776861436866601,-2026,-2,-154,-129,24,17,0,0,0,0,0
1776861436868601,-2026,-4,-145,-130,26,17,0,0,0,0,0
1776861436870601,-2024,-8,-154,-127,26,16,0,0,0,0,0
1776861436872601,-2019,-6,-153,-126,27,16,0,0,0,0,0
1776861436874601,-2017,-2,-151,-127,26,16,0,0,0,0,0
1776861436876601,-2026,-1,-153,-128,25,16,0,0,0,0,0
1776861436878601,-2023,-5,-162,-128,25,15,0,0,0,0,0
1776861436880601,-2025,-5,-169,-131,26,17,0,0,0,0,0
1776861436882601,-2023,-6,-159,-129,27,18,0,0,0,0,0
1776861436884601,-2023,-7,-159,-127,27,17,0,0,0,0,0
1776861436886601,-2023,-2,-162,-128,25,15,243,18685,5632,-1032,255
1776865718683528,24,16,0,0,0,0,195,18693,5376,-520,255
1776865718749074,28,16,0,0,0,0,147,18701,6912,-776,255
1776865718683530,29,16,0,0,0,0,99,18709,6656,-1288,255
1776865718749070,26,15,0,0,0,0,51,18717,6400,-776,255
1776865718683533,25,17,0,0,0,0,3,18725,6656,-2568,255
1776865718683527,22,17,0,0,0,0,211,18732,6400,-1032,255
1776865718683532,23,16,0,0,0,0,163,18740,7680,-1800,255
1776865718683527,24,16,0,0,0,0,115,18748,6400,-2312,255
1776865718683531,27,17,0,0,0,0,67,18756,5888,-1544,255
1776865718683537,25,17,0,0,0,0,19,18764,5888,-1032,255
1776865718749069,24,15,21474,73,-2024,-4,98,32767,6911,4096,0
1776861432105000,0,0,23474,73,-2023,1,100,-32257,6911,4352,0
1776861432105000,0,0,25474,73,-2025,-2,100,32767,6655,4352,0
1776861432105000,0,0,27474,73,-2026,-2,97,32511,6143,4608,0
1776861432105000,0,0,29474,73,-2024,-6,93,32511,5887,4608,0
1776861432105000,0,0,31474,73,-2017,-3,94,32255,6143,4608,0
1776861432105000,0,0,-32062,73,-2016,-4,92,32255,7167,4096,0
1776861432105000,0,0,-30062,73,-2019,0,95,-32257,7167,3584,0
1776861432105000,0,0,-28062,73,-2023,-6,95,-32257,6399,3584,0
1776861432105000,0,0,-26062,73,-2026,-1,89,-32513,6143,3840,0
1776861432105000,0,0,-24062,73,-2025,-1,88,-32513,6655,3840,0
1776861436932601,-2028,-2,-166,-129,27,16,0,0,0,0,0
1776861436934601,-2028,-2,-169,-128,24,16,0,0,0,0,0
1776861436936601,-2025,-6,-161,-127,23,17,0,0,0,0,0
1776861436938601,-2024,-4,-159,-129,24,16,0,0,0,0,0
1776861436940601,-2024,-2,-162,-128,24,16,0,0,0,0,0
1776861436942603,-2022,-1,-158,-127,26,17,0,0,0,0,0
1776861436944603,-2019,-4,-158,-129,27,17,0,0,0,0,0
1776861436946603,-2022,-1,-166,-128,26,15,0,0,0,0,0
1776861436948603,-2025,-4,-162,-129,23,14,0,0,0,0,0
1776861436950603,-2025,-5,-160,-128,24,15,0,0,0,0,0
1776861436952602,-2025,-7,-158,-129,28,15,44,19131,5120,-520,255
1776865718880138,25,16,0,0,0,0,252,19138,5632,-1544,255
1776865718880136,25,15,0,0,0,0,204,19146,7168,-1032,255
1776865718814602,27,16,0,0,0,0,156,19154,6656,-1288,255
1776865718749068,27,16,0,0,0,0,108,19162,5120,-1288,255
1776865718683525,25,15,0,0,0,0,60,19170,4608,-1288,255
1776865718617996,24,14,0,0,0,0,12,19178,6400,-1800,255
1776865718749070,24,16,0,0,0,0,220,19185,5888,-520,255
1776865718749073,26,17,0,0,0,0,172,19193,6144,-520,255
1776865718880137,26,17,0,0,0,0,124,19201,6144,-520,255
1776865718749062,25,17,0,0,0,0,76,19209,7424,248,0
1776865718749059,23,17,4382,75,-2023,-10,89,-32257,6143,4352,0
1776861432105000,0,0,6382,75,-2025,-5,96,-32513,6399,4608,0
1776861432105000,0,0,8382,75,-2027,-7,102,-32257,6911,4352,0
1776861432105000,0,0,10382,75,-2023,-3,108,32767,6911,3840,0
1776861432105000,0,0,12382,75,-2021,-6,113,32767,6911,3840,0
1776861432105000,0,0,14382,75,-2024,-5,105,-32257,7167,4096,0
1776861432105000,0,0,16382,75,-2020,-5,102,-32513,7423,3840,0
1776861432105000,0,0,18382,75,-2023,-3,109,-32513,7167,3840,0
1776861432105000,0,0,20382,75,-2024,-6,102,32511,7167,3584,0
1776861432105000,0,0,22382,75,-2022,-5,100,32511,6911,3840,0
1776861432105000,0,0,24382,75,-2020,-7,100,32767,6399,4096,0
1776861437046581,-2024,2,-163,-128,24,16,0,0,0,0,0
1776861437048581,-2027,0,-160,-129,26,15,0,0,0,0,0
1776861437050580,-2023,-7,-160,-131,26,15,0,0,0,0,0
1776861437052580,-2024,-8,-150,-129,25,17,0,0,0,0,0
1776861437054580,-2022,-9,-156,-128,26,17,0,0,0,0,0
1776861437056580,-2027,-3,-154,-129,26,16,0,0,0,0,0
1776861437058580,-2028,-5,-161,-129,24,17,0,0,0,0,0
1776861437060580,-2032,-7,-157,-129,25,17,0,0,0,0,0
1776861437062580,-2027,-6,-149,-128,26,17,0,0,0,0,0
1776861437064580,-2022,-3,-158,-127,25,15,0,0,0,0,0
1776861437066580,-2022,-11,-163,-127,25,16,254,19388,6656,-1800,255
1776865718814598,23,17,0,0,0,0,206,19396,5888,-1032,255
1776865718749062,23,17,0,0,0,0,158,19404,5632,-776,255
1776865718814602,26,17,0,0,0,0,110,19412,6144,-1288,255
1776865718814600,26,15,0,0,0,0,62,19420,5888,-1032,255
1776865718814609,25,15,0,0,0,0,14,19428,5632,-1032,255
1776865718749078,23,16,0,0,0,0,222,19435,5632,-776,255
1776865718683529,24,16,0,0,0,0,174,19443,7168,248,0
1776865718749064,25,16,0,0,0,0,126,19451,6144,-8,255
1776865718814604,25,17,0,0,0,0,78,19459,6656,248,0
1776865718880136,24,17,0,0,0,0,29,19467,5376,-8,255
1776865718880128,24,15,4845,76,-2019,-5,88,32255,7167,3840,0
1776861432105000,0,0,6845,76,-2019,-5,89,32511,7167,4096,0
1776861432105000,0,0,8845,76,-2025,-1,90,32767,7423,4096,0
1776861432105000,0,0,10845,76,-2026,-7,96,-32513,7167,4352,0
1776861432105000,0,0,12845,76,-2029,-8,96,32767,6655,4352,0
1776861432105000,0,0,14845,76,-2028,-8,97,32767,5887,4608,0
1776861432105000,0,0,16845,76,-2029,-9,98,32511,6399,4608,0
1776861432105000,0,0,18845,76,-2031,-7,93,32511,7167,4352,0
1776861432105000,0,0,20845,76,-2027,-4,95,-32257,6655,4352,0
1776861432105000,0,0,22845,76,-2025,-4,104,-32257,6143,4352,0
1776861432105000,0,0,24845,76,-2023,0,96,-32513,6399,4096,0
1776861437112580,-2019,-10,-154,-128,25,16,0,0,0,0,0
1776861437114580,-2025,-5,-153,-127,26,18,0,0,0,0,0
1776861437116580,-2024,-5,-154,-130,24,17,0,0,0,0,0
1776861437118580,-2025,-4,-158,-130,25,17,0,0,0,0,0
1776861437120580,-2025,-11,-162,-130,27,17,0,0,0,0,0
1776861437122580,-2026,-8,-168,-130,24,17,0,0,0,0,0
1776861437124580,-2026,-7,-149,-127,21,17,0,0,0,0,0
1776861437126580,-2024,-6,-147,-127,23,16,0,0,0,0,0
1776861437128580,-2021,-3,-160,-128,27,18,0,0,0,0,0
1776861437130580,-2022,-4,-157,-127,27,18,0,0,0,0,0
1776861437132580,-2017,-6,-161,-126,25,17,206,19646,5632,-3080,255
1776865718814598,20,18,0,0,0,0,158,19654,5120,-1800,255
1776865718683524,21,16,0,0,0,0,110,19662,5376,-520,255
1776865718749052,24,15,0,0,0,0,62,19670,4864,-1032,255
1776865718749059,26,14,0,0,0,0,14,19678,6656,-2056,255
