# KAPUTNIK Flight Data v5
# Sample rate: 500 Hz
# Samples: 4989
# Accel range: +/-16 g
# Gyro range: +/-2000 dps
# Epoch start: 1776861866105
epoch_us,ax,ay,az,gx,gy,gz,gp14,mx,my,mz,mag_valid
1776861866105393,-2022,12,-196,-130,25,17,0,0,0,0,0
1776861866107002,-2022,12,-196,-130,25,17,0,0,0,0,0
1776861866109002,-2027,13,-202,-129,26,16,0,0,0,0,0
1776861866111001,-2024,14,-195,-129,26,15,0,0,0,0,0
1776861866113002,-2022,13,-197,-130,26,17,0,0,0,0,0
1776861866115002,-2023,10,-197,-130,26,15,0,0,0,0,0
1776861866117002,-2026,12,-195,-131,25,14,0,0,0,0,0
1776861866119002,-2025,12,-191,-129,28,16,0,0,0,0,0
1776861866121002,-2017,9,-190,-130,28,15,0,0,0,0,0
1776861866123002,-2014,14,-186,-129,26,15,0,0,0,0,0
1776866161072295,-1,-1,-1,-1,-1,-1,34,78,7936,3320,0
1776866152683500,24,17,0,0,0,0,39,284,6400,2040,0
1776866152749029,22,15,0,0,0,0,247,291,5632,3064,0
1776866152814569,24,15,0,0,0,0,199,299,6400,2808,0
1776866152814565,25,15,0,0,0,0,151,307,6400,2296,0
1776866152749032,25,16,0,0,0,0,103,315,5376,1784,0
1776866152749037,25,15,0,0,0,0,55,323,5888,1784,0
1776866152749036,26,15,0,0,0,0,7,331,5888,2296,0
1776866152749036,26,16,0,0,0,0,215,338,5632,3576,0
1776866152683493,26,18,0,0,0,0,167,346,6400,2552,0
1776866152749023,24,17,0,0,0,0,255,-1,-1,-1,255
1776866161072295,-1,-1,25207,1,-2021,8,58,-32513,6143,3584,0
1776861866105000,0,0,27207,1,-2023,8,65,32767,6911,3328,0
1776861866105000,0,0,29207,1,-2026,7,81,32511,7679,3584,0
1776861866105000,0,0,31207,1,-2019,11,72,32511,7167,4096,0
1776861866105000,0,0,-32329,1,-2017,9,65,32511,6911,3584,0
1776861866105000,0,0,-30329,1,-2019,6,68,32767,7167,4096,0
1776861866105000,0,0,-28329,1,-2016,9,69,32767,7423,4096,0
1776861866105000,0,0,-26329,1,-2022,11,77,32767,7167,3840,0
1776861866105000,0,0,-24329,1,-2016,8,74,-32513,6655,4096,0
1776861866105000,0,0,-22329,1,-2019,13,70,-32513,6399,4096,0
1776861866105000,0,0,-1,-1,-1,-1,255,-1,-1,-1,255
1776861866215743,-2020,10,-184,-128,24,17,0,0,0,0,0
1776861866217743,-2027,9,-181,-128,24,18,0,0,0,0,0
1776861866219743,-2022,10,-187,-130,23,17,0,0,0,0,0
1776861866221743,-2021,16,-180,-129,23,17,0,0,0,0,0
1776861866223743,-2015,11,-187,-129,25,17,0,0,0,0,0
1776861866225743,-2017,14,-189,-127,27,14,0,0,0,0,0
1776861866227743,-2019,12,-190,-126,25,13,0,0,0,0,0
1776861866229743,-2020,11,-202,-127,25,14,0,0,0,0,0
1776861866231743,-2023,11,-183,-129,25,14,0,0,0,0,0
1776861866233743,-2023,9,-188,-128,26,15,0,0,0,0,0
1776866161072295,-1,-1,-1,-1,-1,-1,183,510,6144,2040,0
1776866152552430,26,15,0,0,0,0,135,518,7424,2296,0
1776866152683501,25,14,0,0,0,0,87,526,7168,2808,0
1776866152617964,25,15,0,0,0,0,39,534,6400,2552,0
1776866152683499,25,16,0,0,0,0,247,541,6400,2808,0
1776866152749042,23,18,0,0,0,0,199,549,7424,2552,0
1776866152749042,22,18,0,0,0,0,151,557,7424,4600,0
1776866152617967,25,15,0,0,0,0,103,565,8192,2808,0
1776866152617966,26,14,0,0,0,0,55,573,7424,3832,0
1776866152749041,27,16,0,0,0,0,7,581,6656,3832,0
1776866152683496,26,16,0,0,0,0,255,-1,-1,-1,255
1776866161072295,-1,-1,19671,2,-2025,9,63,32767,6655,3584,0
1776861866105000,0,0,21671,2,-2016,12,66,-32513,6655,3840,0
1776861866105000,0,0,23671,2,-2012,5,67,-32513,6399,3840,0
1776861866105000,0,0,25671,2,-2019,8,72,-32257,6655,4352,0
1776861866105000,0,0,27671,2,-2019,9,68,-32257,6399,4352,0
1776861866105000,0,0,29671,2,-2018,10,67,32767,6143,4096,0
1776861866105000,0,0,31671,2,-2018,6,68,32511,6143,4096,0
1776861866105000,0,0,-31865,2,-2017,10,78,-32513,6399,4096,0
1776861866105000,0,0,-29865,2,-2017,10,68,32767,6655,3840,0
1776861866105000,0,0,-27865,2,-2018,10,63,32511,6911,3840,0
1776861866105000,0,0,-1,-1,-1,-1,255,-1,-1,-1,255
1776861866275743,-2019,16,-181,-129,28,16,0,0,0,0,0
1776861866277744,-2021,14,-186,-129,28,17,0,0,0,0,0
1776861866279745,-2019,7,-190,-130,28,16,0,0,0,0,0
1776861866281746,-2027,8,-197,-129,28,15,0,0,0,0,0
1776861866283743,-2019,7,-191,-130,27,14,0,0,0,0,0
1776861866285743,-2020,9,-183,-130,28,14,0,0,0,0,0
1776861866287744,-2018,9,-181,-130,27,16,0,0,0,0,0
1776861866289744,-2018,14,-192,-130,25,15,0,0,0,0,0
1776861866291744,-2020,12,-190,-129,24,14,0,0,0,0,0
1776861866293744,-2020,10,-189,-128,23,16,0,0,0,0,0
1776866161072295,-1,-1,-1,-1,-1,-1,24,745,6912,3320,0
1776866152683497,22,15,0,0,0,0,232,752,6144,3576,0
1776866152749037,24,13,0,0,0,0,184,760,6144,3064,0
1776866152683495,25,15,0,0,0,0,136,768,6656,3576,0
1776866152683501,27,15,0,0,0,0,88,776,7680,2296,0
1776866152749031,28,14,0,0,0,0,40,784,7168,1784,0
1776866152749029,26,14,0,0,0,0,248,791,6656,3320,0
1776866152749038,23,19,0,0,0,0,200,799,6912,3064,0
1776866152749031,21,19,0,0,0,0,152,807,7936,2296,0
1776866152683499,21,17,0,0,0,0,104,815,7680,2808,0
1776866152683495,22,15,0,0,0,0,255,-1,-1,-1,255
1776866161072295,-1,-1,14136,3,-2017,11,58,-32513,6399,3840,0
1776861866105000,0,0,16137,3,-2025,13,77,-32513,6399,3840,0
1776861866105000,0,0,18137,3,-2026,9,58,-32257,6911,4352,0
1776861866105000,0,0,20137,3,-2027,11,63,-32513,6911,4352,0
1776861866105000,0,0,22138,3,-2023,14,55,32767,6911,3840,0
1776861866105000,0,0,24135,3,-2025,7,57,32767,7167,3584,0
1776861866105000,0,0,26135,3,-2028,8,72,32255,7167,3328,0
1776861866105000,0,0,28135,3,-2027,13,69,32511,7167,3840,0
1776861866105000,0,0,30135,3,-2021,5,66,-32513,6399,4096,0
1776861866105000,0,0,32135,3,-2019,8,53,-32257,6655,3840,0
1776861866105000,0,0,-1,-1,-1,-1,255,-1,-1,-1,255
1776861866335744,-2014,8,-199,-127,27,15,0,0,0,0,0
1776861866337744,-2019,13,-189,-129,28,15,0,0,0,0,0
1776861866339744,-2021,12,-198,-128,27,17,0,0,0,0,0
1776861866341744,-2022,18,-201,-126,25,17,0,0,0,0,0
1776861866343744,-2022,11,-191,-128,23,14,0,0,0,0,0
1776861866345744,-2023,13,-188,-130,26,15,0,0,0,0,0
1776861866347744,-2012,10,-184,-129,27,14,0,0,0,0,0
1776861866349744,-2017,8,-187,-128,26,16,0,0,0,0,0
1776861866351744,-2023,12,-187,-130,25,16,0,0,0,0,0
1776861866353744,-2024,13,-195,-130,24,18,0,0,0,0,0
1776866161072295,-1,-1,-1,-1,-1,-1,120,979,6144,2040,0
1776866152749041,24,17,0,0,0,0,72,987,7168,2808,0
1776866152683502,22,18,0,0,0,0,24,995,6912,1784,0
1776866152749040,24,17,0,0,0,0,232,1002,7168,1784,0
1776866152749040,25,16,0,0,0,0,184,1010,6144,2296,0
1776866152617968,24,17,0,0,0,0,136,1018,5376,3064,0
1776866152683515,25,17,0,0,0,0,88,1026,6400,2040,0
1776866152749032,26,17,0,0,0,0,40,1034,7168,2552,0
1776866152749039,27,17,0,0,0,0,248,1041,6400,2296,0
1776866152814570,28,17,0,0,0,0,200,1049,6656,1272,0
1776866152683502,27,18,0,0,0,0,255,-1,-1,-1,255
1776866161072295,-1,-1,8600,4,-2024,9,65,32767,6911,4352,0
1776861866105000,0,0,10601,4,-2026,12,59,32767,6655,3840,0
1776861866105000,0,0,12601,4,-2024,17,69,32767,6399,3840,0
1776861866105000,0,0,14601,4,-2019,16,67,32511,6399,3840,0
1776861866105000,0,0,16601,4,-2024,10,57,32767,5887,3840,0
1776861866105000,0,0,18601,4,-2018,11,57,-32513,6143,4096,0
1776861866105000,0,0,20601,4,-2016,9,67,-32001,6399,4352,0
1776861866105000,0,0,22601,4,-2020,9,65,-32257,6911,4096,0
1776861866105000,0,0,24601,4,-2017,5,71,32767,7167,3840,0
1776861866105000,0,0,26601,4,-2017,13,65,-32513,6655,3584,0
1776861866105000,0,0,-1,-1,-1,-1,255,-1,-1,-1,255
1776861866395746,-2022,16,-195,-130,26,13,0,0,0,0,0
1776861866397746,-2023,12,-203,-129,25,14,0,0,0,0,0
1776861866399743,-2031,10,-196,-130,25,15,0,0,0,0,0
1776861866401743,-2028,7,-184,-129,24,19,0,0,0,0,0
1776861866403743,-2027,6,-182,-127,24,16,0,0,0,0,0
1776861866405743,-2028,7,-176,-127,24,15,0,0,0,0,0
1776861866407744,-2026,9,-181,-129,25,15,0,0,0,0,0
1776861866409744,-2024,9,-184,-131,25,16,0,0,0,0,0
1776861866411744,-2022,10,-186,-131,26,14,0,0,0,0,0
1776861866413744,-2021,8,-191,-130,26,16,0,0,0,0,0
1776866161072295,-1,-1,-1,-1,-1,-1,216,1213,5888,3320,0
1776866152749031,26,17,0,0,0,0,168,1221,6656,2552,0
1776866152814564,27,15,0,0,0,0,120,1229,7680,2552,0
1776866152683492,29,18,0,0,0,0,72,1237,7168,1784,0
1776866152617963,28,19,0,0,0,0,24,1245,5376,2296,0
1776866152617959,26,17,0,0,0,0,232,1252,7680,2296,0
1776866152617958,25,17,0,0,0,0,184,1260,7168,2040,0
1776866152683482,26,17,0,0,0,0,136,1268,6912,4088,0
1776866152749027,25,17,0,0,0,0,88,1276,7168,3576,0
1776866152880104,23,16,0,0,0,0,40,1284,7168,2808,0
1776866152814564,24,15,0,0,0,0,255,-1,-1,-1,255
1776866161072295,-1,-1,3064,5,-2024,9,67,32767,7167,3840,0
1776861866105000,0,0,5065,5,-2021,11,66,32767,6911,4096,0
1776861866105000,0,0,7065,5,-2024,10,73,-32513,6655,4352,0
1776861866105000,0,0,9065,5,-2025,10,69,-32513,7167,4352,0
1776861866105000,0,0,11065,5,-2021,10,65,-32001,7167,4352,0
1776861866105000,0,0,13066,5,-2021,11,71,-32257,6399,3840,0
1776861866105000,0,0,15063,5,-2019,7,70,32767,6143,3840,0
1776861866105000,0,0,17063,5,-2023,3,75,32767,6143,3840,0
1776861866105000,0,0,19063,5,-2022,2,61,32255,5631,4096,0
1776861866105000,0,0,21063,5,-2023,7,60,32767,6143,4096,0
1776861866105000,0,0,-1,-1,-1,-1,255,-1,-1,-1,255
1776861866455743,-2023,11,-200,-127,23,16,0,0,0,0,0
1776861866457744,-2022,7,-202,-128,21,16,0,0,0,0,0
1776861866459744,-2026,9,-200,-129,23,16,0,0,0,0,0
1776861866461744,-2022,8,-197,-129,26,16,0,0,0,0,0
1776861866463744,-2024,7,-188,-129,28,15,0,0,0,0,0
1776861866465744,-2025,11,-186,-128,26,14,0,0,0,0,0
1776861866467744,-2024,11,-177,-127,26,15,0,0,0,0,0
1776861866469744,-2021,7,-190,-127,24,15,0,0,0,0,0
1776861866471744,-2015,6,-196,-130,25,17,0,0,0,0,0
1776861866473744,-2021,13,-199,-132,25,16,0,0,0,0,0
1776866161072295,-1,-1,-1,-1,-1,-1,56,1448,6912,3064,0
1776866152617957,24,17,0,0,0,0,9,1456,6656,4344,0
1776866152749034,25,17,0,0,0,0,217,1463,6656,3320,0
1776866152814569,25,17,0,0,0,0,169,1471,7680,3576,0
1776866152749023,25,17,0,0,0,0,121,1479,7168,3320,0
1776866152617959,26,16,0,0,0,0,73,1487,7168,3064,0
1776866152617965,28,16,0,0,0,0,25,1495,7936,3064,0
1776866152617955,28,17,0,0,0,0,233,1502,7680,3576,0
1776866152683496,25,14,0,0,0,0,185,1510,7936,3576,0
1776866152683492,24,14,0,0,0,0,137,1518,8192,2808,0
1776866152617947,24,15,0,0,0,0,255,-1,-1,-1,255
1776866161072295,-1,-1,-2471,5,-2024,7,61,32255,6143,3584,0
1776861866105000,0,0,-17921,6,-2022,5,59,32511,6143,4096,0
1776861866105000,0,0,-15921,6,-2023,6,49,-32513,6143,4096,0
1776861866105000,0,0,-13921,6,-2025,9,63,-32001,6399,3584,0
1776861866105000,0,0,-11921,6,-2028,5,68,-32257,6399,3584,0
1776861866105000,0,0,-9921,6,-2028,7,64,-32513,6911,3584,0
1776861866105000,0,0,-7921,6,-2018,7,68,-32257,6911,4096,0
1776861866105000,0,0,-5921,6,-2019,9,64,-32513,6911,4352,0
1776861866105000,0,0,-3921,6,-2022,10,60,32767,6655,4096,0
1776861866105000,0,0,-1921,6,-2020,8,59,-32257,6399,4352,0
1776861866105000,0,0,-1,-1,-1,-1,255,-1,-1,-1,255
1776861866563831,-2020,7,-196,-127,23,16,0,0,0,0,0
1776861866565831,-2020,6,-193,-128,25,15,0,0,0,0,0
1776861866567831,-2020,5,-191,-129,27,17,0,0,0,0,0
1776861866569831,-2020,7,-195,-129,25,19,0,0,0,0,0
1776861866571831,-2021,10,-195,-129,26,17,0,0,0,0,0
1776861866573831,-2023,13,-197,-127,25,16,0,0,0,0,0
1776861866575831,-2022,9,-192,-128,26,14,0,0,0,0,0
1776861866577831,-2021,12,-192,-129,28,14,0,0,0,0,0
1776861866579831,-2020,12,-192,-128,27,17,0,0,0,0,0
1776861866581831,-2024,14,-201,-129,27,17,0,0,0,0,0
1776866161072295,-1,-1,-1,-1,-1,-1,111,1870,6400,2040,0
1776866152749036,25,17,0,0,0,0,63,1878,6912,2552,0
1776866152749036,23,16,0,0,0,0,15,1886,4608,3832,0
1776866152683501,25,16,0,0,0,0,223,1893,5376,2552,0
1776866152749032,25,16,0,0,0,0,175,1901,6400,3576,0
1776866152880099,25,16,0,0,0,0,127,1909,6400,3832,0
1776866152617961,25,17,0,0,0,0,79,1917,5888,3576,0
1776866152683495,24,17,0,0,0,0,31,1925,4864,3064,0
1776866152814573,24,16,0,0,0,0,239,1932,5888,3320,0
1776866152749038,22,16,0,0,0,0,191,1940,6400,3064,0
1776866152683499,25,16,0,0,0,0,255,-1,-1,-1,255
1776866161072295,-1,-1,-25457,7,-2024,15,63,32767,6655,4096,0
1776861866105000,0,0,-23456,7,-2021,12,61,-32513,6655,4096,0
1776861866105000,0,0,-21456,7,-2023,13,65,-32257,6655,4096,0
1776861866105000,0,0,-19456,7,-2018,12,77,-32513,6399,4352,0
1776861866105000,0,0,-17456,7,-2019,10,75,32511,6143,4096,0
1776861866105000,0,0,-15456,7,-2018,14,61,32511,6399,3840,0
1776861866105000,0,0,-13456,7,-2013,20,62,32767,6655,3840,0
1776861866105000,0,0,-11456,7,-2020,15,64,32511,6911,3840,0
1776861866105000,0,0,-9456,7,-2022,8,63,32511,6911,4096,0
1776861866105000,0,0,-7456,7,-2026,7,64,32511,6911,3840,0
1776861866105000,0,0,-1,-1,-1,-1,255,-1,-1,-1,255
1776861866623832,-2025,8,-192,-129,26,16,0,0,0,0,0
1776861866625832,-2022,10,-192,-129,25,16,0,0,0,0,0
1776861866627832,-2023,8,-200,-127,25,17,0,0,0,0,0
1776861866629832,-2024,12,-191,-127,26,18,0,0,0,0,0
1776861866631832,-2023,10,-179,-126,24,16,0,0,0,0,0
1776861866633832,-2021,6,-187,-126,23,16,0,0,0,0,0
1776861866635832,-2022,10,-186,-129,23,15,0,0,0,0,0
1776861866637832,-2024,9,-195,-129,26,15,0,0,0,0,0
1776861866639832,-2025,9,-199,-127,26,15,0,0,0,0,0
1776861866641832,-2019,12,-194,-128,27,15,0,0,0,0,0
1776866161072295,-1,-1,-1,-1,-1,-1,208,2104,6912,2808,0
1776866152683498,25,15,0,0,0,0,160,2112,6144,2296,0
1776866152749026,25,15,0,0,0,0,112,2120,6400,1784,0
1776866152683492,26,15,0,0,0,0,64,2128,5888,1016,0
1776866152617956,24,16,0,0,0,0,16,2136,5632,1784,0
1776866152617960,23,16,0,0,0,0,224,2143,5376,1784,0
1776866152683498,24,17,0,0,0,0,176,2151,4864,2552,0
1776866152749033,24,16,0,0,0,0,128,2159,4864,2808,0
1776866152814568,25,16,0,0,0,0,80,2167,6656,1784,0
1776866152880102,25,17,0,0,0,0,32,2175,6912,3320,0
1776866152945643,22,17,0,0,0,0,255,-1,-1,-1,255
1776866161072295,-1,-1,-30992,8,-2016,7,72,-32257,5887,4096,0
1776861866105000,0,0,-28992,8,-2017,13,79,-32257,6143,4096,0
1776861866105000,0,0,-26992,8,-2026,10,75,-32257,6655,3840,0
1776861866105000,0,0,-24992,8,-2023,11,79,-32513,6911,4096,0
1776861866105000,0,0,-22992,8,-2021,14,69,32767,6655,4608,0
1776861866105000,0,0,-20992,8,-2021,9,65,-32001,6911,4352,0
1776861866105000,0,0,-18992,8,-2023,10,64,-32257,6911,4352,0
1776861866105000,0,0,-16992,8,-2024,9,62,-32513,6911,4608,0
1776861866105000,0,0,-14992,8,-2026,13,73,-32257,6655,4608,0
1776861866105000,0,0,-12992,8,-2024,8,61,-32257,6911,4352,0
1776861866105000,0,0,-1,-1,-1,-1,255,-1,-1,-1,255
1776861866683832,-2020,9,-191,-128,25,17,0,0,0,0,0
1776861866685832,-2024,8,-194,-126,23,17,0,0,0,0,0
1776861866687832,-2021,9,-188,-128,25,17,0,0,0,0,0
1776861866689832,-2025,7,-189,-129,27,17,0,0,0,0,0
1776861866691832,-2028,9,-187,-128,27,18,0,0,0,0,0
1776861866693832,-2021,9,-178,-129,28,16,0,0,0,0,0
1776861866695832,-2018,7,-172,-128,29,14,0,0,0,0,0
1776861866697832,-2022,7,-188,-127,25,15,0,0,0,0,0
1776861866699832,-2018,3,-185,-129,24,15,0,0,0,0,0
1776861866701832,-2024,8,-194,-129,25,14,0,0,0,0,0
1776866161072295,-1,-1,-1,-1,-1,-1,48,2339,6912,1272,0
1776866152552434,25,14,0,0,0,0,0,2347,7168,504,0
1776866152617969,24,16,0,0,0,0,208,2354,6400,1784,0
1776866152617969,24,15,0,0,0,0,160,2362,7680,3576,0
1776866152617964,25,14,0,0,0,0,112,2370,6400,5112,0
1776866152749032,25,16,0,0,0,0,64,2378,7168,4856,0
1776866152749025,25,18,0,0,0,0,16,2386,7936,1528,0
1776866152749031,28,17,0,0,0,0,224,2393,6912,1784,0
1776866152617961,27,17,0,0,0,0,176,2401,7936,1272,0
1776866152683496,26,16,0,0,0,0,128,2409,7168,2552,0
1776866152617962,24,15,0,0,0,0,255,-1,-1,-1,255
1776866161072295,-1,-1,29008,9,-2029,9,67,32511,6655,4352,0
1776861866105000,0,0,31008,9,-2026,13,64,32511,6655,4352,0
1776861866105000,0,0,-32528,9,-2020,11,65,32767,6655,3840,0
1776861866105000,0,0,-30528,9,-2021,5,67,-32513,6655,3840,0
1776861866105000,0,0,-28528,9,-2019,13,60,-32257,6143,4352,0
1776861866105000,0,0,-26528,9,-2017,9,58,-32257,6143,4096,0
1776861866105000,0,0,-24528,9,-2025,4,61,-32513,6655,4096,0
1776861866105000,0,0,-22528,9,-2024,6,63,32767,6655,3840,0
1776861866105000,0,0,-20528,9,-2016,7,66,-32257,6399,3840,0
1776861866105000,0,0,-18528,9,-2018,8,65,-32257,6399,4096,0
1776861866105000,0,0,-1,-1,-1,-1,255,-1,-1,-1,255
1776861866743832,-2019,11,-192,-128,23,15,0,0,0,0,0
1776861866745833,-2022,13,-189,-128,20,16,0,0,0,0,0
1776861866747833,-2022,12,-191,-129,21,18,0,0,0,0,0
1776861866749833,-2018,16,-183,-127,23,17,0,0,0,0,0
1776861866751833,-2021,9,-186,-126,24,16,0,0,0,0,0
1776861866753833,-2021,4,-199,-129,25,16,0,0,0,0,0
1776861866755833,-2023,5,-186,-128,25,16,0,0,0,0,0
1776861866757834,-2025,10,-191,-129,27,16,0,0,0,0,0
1776861866759831,-2024,9,-191,-129,28,17,0,0,0,0,0
1776861866761831,-2023,7,-198,-129,26,16,0,0,0,0,0
1776866161072295,-1,-1,-1,-1,-1,-1,143,2573,6912,3064,0
1776866152749033,24,16,0,0,0,0,96,2581,6400,2552,0
1776866152749035,24,16,0,0,0,0,48,2589,5888,3064,0
1776866152683490,24,16,0,0,0,0,0,2597,6144,4088,0
1776866152749029,25,15,0,0,0,0,208,2604,5632,3832,0
1776866152749029,24,14,0,0,0,0,160,2612,6912,1528,0
1776866152683487,22,15,0,0,0,0,112,2620,7424,2296,0
1776866152814567,23,16,0,0,0,0,64,2628,6656,2552,0
1776866152880106,24,17,0,0,0,0,16,2636,4608,2552,0
1776866152814579,27,17,0,0,0,0,224,2643,5120,1784,0
1776866152814575,29,16,0,0,0,0,255,-1,-1,-1,255
1776866161072295,-1,-1,23472,10,-2028,14,67,-32257,7167,4352,0
1776861866105000,0,0,25473,10,-2024,15,66,-32257,6655,4352,0
1776861866105000,0,0,27473,10,-2018,9,65,-32257,6399,4096,0
1776861866105000,0,0,29473,10,-2020,9,66,-32257,6911,4096,0
1776861866105000,0,0,31473,10,-2021,16,67,-32513,6911,4096,0
1776861866105000,0,0,-32063,10,-2021,14,63,32511,6143,3840,0
1776861866105000,0,0,-30063,10,-2021,12,73,-32257,5887,4096,0
1776861866105000,0,0,-28063,10,-2024,9,65,-32513,6143,4352,0
1776861866105000,0,0,-26063,10,-2019,5,60,-32513,5631,4096,0
1776861866105000,0,0,-24063,10,-2019,3,53,32767,6143,4352,0
1776861866105000,0,0,-1,-1,-1,-1,255,-1,-1,-1,255
1776861866803833,-2022,7,-192,-128,23,16,0,0,0,0,0
1776861866805833,-2021,11,-196,-128,24,16,0,0,0,0,0
1776861866807833,-2023,8,-199,-129,26,16,0,0,0,0,0
1776861866809833,-2021,8,-202,-129,25,16,0,0,0,0,0
1776861866811833,-2025,10,-200,-128,24,16,0,0,0,0,0
1776861866813833,-2024,11,-187,-128,24,16,0,0,0,0,0
1776861866815833,-2022,10,-190,-129,23,15,0,0,0,0,0
1776861866817833,-2027,13,-189,-128,22,15,0,0,0,0,0
1776861866819833,-2025,14,-187,-127,21,16,0,0,0,0,0
1776861866821833,-2027,12,-194,-128,22,16,0,0,0,0,0
1776866161072295,-1,-1,-1,-1,-1,-1,241,2807,6144,3064,0
1776866152683505,24,15,0,0,0,0,193,2815,6400,3064,0
1776866152749037,26,14,0,0,0,0,145,2823,6656,3576,0
1776866152749039,25,16,0,0,0,0,97,2831,6656,3064,0
1776866152617966,25,16,0,0,0,0,49,2839,5376,4344,0
1776866152617971,27,17,0,0,0,0,1,2847,6400,3576,0
1776866152683502,27,16,0,0,0,0,209,2854,5888,3576,0
1776866152749042,26,17,0,0,0,0,161,2862,6144,3576,0
1776866152683501,24,17,0,0,0,0,111,2870,7168,1784,0
1776866152749031,24,16,0,0,0,0,63,2878,6400,3064,0
1776866152683493,24,14,0,0,0,0,255,-1,-1,-1,255
1776866161072295,-1,-1,17935,11,-2025,12,56,32767,6143,3584,0
1776861866105000,0,0,19935,11,-2022,11,63,32511,6911,4096,0
1776861866105000,0,0,21935,11,-2014,15,64,-32513,6911,4096,0
1776861866105000,0,0,23935,11,-2021,17,64,-32513,6655,3840,0
1776861866105000,0,0,25935,11,-2019,15,66,-32513,6655,4096,0
1776861866105000,0,0,27935,11,-2021,9,63,32767,7423,4096,0
1776861866105000,0,0,29935,11,-2018,14,66,32255,7423,3840,0
1776861866105000,0,0,31935,11,-2024,14,67,32767,7167,4096,0
1776861866105000,0,0,-31601,11,-2020,13,62,-32257,6911,3840,0
1776861866105000,0,0,-29601,11,-2016,12,67,-32513,6911,3584,0
1776861866105000,0,0,-1,-1,-1,-1,255,-1,-1,-1,255
1776861866863831,-2021,7,-198,-127,23,14,0,0,0,0,0
1776861866913809,-2023,8,-200,-128,24,17,0,0,0,0,0
1776861866915809,-2016,4,-200,-128,21,16,0,0,0,0,0
1776861866917809,-2019,12,-203,-130,24,16,0,0,0,0,0
1776861866919809,-2021,11,-201,-130,25,17,0,0,0,0,0
1776861866921809,-2030,8,-189,-130,26,17,0,0,0,0,0
1776861866923809,-2021,11,-194,-128,27,16,0,0,0,0,0
1776861866925809,-2022,15,-188,-130,27,16,0,0,0,0,0
1776861866927809,-2019,14,-195,-130,25,15,0,0,0,0,0
1776861866929809,-2014,9,-186,-130,27,15,0,0,0,0,0
1776866161072295,-1,-1,-1,-1,-1,-1,185,3229,8448,2552,0
1776866152617964,25,16,0,0,0,0,137,3237,8960,2808,0
1776866152683502,25,17,0,0,0,0,89,3245,6912,2808,0
1776866152683495,24,16,0,0,0,0,41,3253,6656,3576,0
1776866152749032,25,17,0,0,0,0,249,3260,6400,2552,0
1776866152814575,24,17,0,0,0,0,201,3268,7168,3832,0
1776866152814577,24,17,0,0,0,0,153,3276,6656,1528,0
1776866152814573,25,18,0,0,0,0,105,3284,6656,2808,0
1776866152880103,26,17,0,0,0,0,57,3292,8960,3576,0
1776866152880102,26,17,0,0,0,0,9,3300,7424,4088,0
1776866152749024,25,16,0,0,0,0,255,-1,-1,-1,255
1776866161072295,-1,-1,-5159,12,-2024,13,59,32511,6911,4352,0
1776861866105000,0,0,-3159,12,-2025,9,66,32511,6655,3840,0
1776861866105000,0,0,-1159,12,-2021,13,56,32767,6399,3840,0
1776861866105000,0,0,841,13,-2020,13,61,32767,6143,4096,0
1776861866105000,0,0,2841,13,-2023,11,65,-32513,6143,3840,0
1776861866105000,0,0,4841,13,-2022,11,63,32511,6655,4096,0
1776861866105000,0,0,6841,13,-2014,9,64,32511,6143,4096,0
1776861866105000,0,0,8841,13,-2019,4,75,-32001,6143,3840,0
1776861866105000,0,0,10841,13,-2017,7,70,-32257,5887,4352,0
1776861866105000,0,0,12841,13,-2014,8,63,-32513,6143,4352,0
1776861866105000,0,0,-1,-1,-1,-1,255,-1,-1,-1,255
1776861866971809,-2017,10,-192,-127,26,15,0,0,0,0,0
1776861866973809,-2018,12,-196,-128,26,17,0,0,0,0,0
1776861866975809,-2019,12,-184,-129,26,17,0,0,0,0,0
1776861866977809,-2019,11,-191,-129,25,16,0,0,0,0,0
1776861866979809,-2016,12,-197,-127,23,14,0,0,0,0,0
1776861866981809,-2022,9,-185,-129,24,15,0,0,0,0,0
1776861866983809,-2023,12,-202,-129,24,17,0,0,0,0,0
1776861866985809,-2026,9,-205,-128,24,16,0,0,0,0,0
1776861866987809,-2025,4,-194,-129,23,16,0,0,0,0,0
1776861866989809,-2027,10,-185,-129,24,16,0,0,0,0,0
1776866161072295,-1,-1,-1,-1,-1,-1,25,3464,6144,3064,0
1776866152683510,27,16,0,0,0,0,233,3471,6400,3064,0
1776866152683506,28,16,0,0,0,0,185,3479,5632,1784,0
1776866152814571,27,16,0,0,0,0,137,3487,5888,504,0
1776866152814566,26,15,0,0,0,0,89,3495,6400,1528,0
1776866152683503,26,15,0,0,0,0,41,3503,6400,2040,0
1776866152749038,25,16,0,0,0,0,249,3510,6912,2296,0
1776866152749040,25,14,0,0,0,0,201,3518,5888,3320,0
1776866152683489,26,14,0,0,0,0,153,3526,6656,2040,0
1776866152617960,27,16,0,0,0,0,105,3534,6400,1784,0
1776866152617962,28,15,0,0,0,0,255,-1,-1,-1,255
1776866161072295,-1,-1,-10695,13,-2021,11,65,-32257,6655,3840,0
1776861866105000,0,0,-8695,13,-2022,6,71,32767,6655,3584,0
1776861866105000,0,0,-6695,13,-2025,6,74,32767,7167,3840,0
1776861866105000,0,0,-4695,13,-2021,5,68,32767,7679,4096,0
1776861866105000,0,0,-2695,13,-2019,5,68,-32513,7679,4096,0
1776861866105000,0,0,-695,13,-2018,7,67,-32257,6655,4352,0
1776861866105000,0,0,1305,14,-2029,8,59,32767,6143,4096,0
1776861866105000,0,0,3305,14,-2024,10,54,32511,5887,4096,0
1776861866105000,0,0,5305,14,-2020,7,62,-32513,6143,4608,0
1776861866105000,0,0,7305,14,-2020,10,61,-32513,6399,4352,0
1776861866105000,0,0,-1,-1,-1,-1,255,-1,-1,-1,255
1776861867031809,-2023,11,-195,-127,21,17,0,0,0,0,0
1776861867033810,-2019,16,-189,-127,23,18,0,0,0,0,0
1776861867035810,-2017,11,-186,-129,24,18,0,0,0,0,0
1776861867037810,-2016,11,-190,-128,25,17,0,0,0,0,0
1776861867039810,-2019,8,-193,-128,27,17,0,0,0,0,0
1776861867041810,-2015,9,-192,-128,26,16,0,0,0,0,0
1776861867043810,-2015,8,-187,-128,25,16,0,0,0,0,0
1776861867045810,-2019,6,-183,-128,24,16,0,0,0,0,0
1776861867047810,-2025,2,-187,-127,23,16,0,0,0,0,0
1776861867049810,-2021,8,-194,-128,23,15,0,0,0,0,0
1776866161072295,-1,-1,-1,-1,-1,-1,122,3698,7168,2040,0
1776866152683496,24,14,0,0,0,0,74,3706,6400,2552,0
1776866152683489,22,15,0,0,0,0,26,3714,6400,4088,0
1776866152749027,23,16,0,0,0,0,234,3721,6656,3576,0
1776866152749033,24,17,0,0,0,0,186,3729,6656,3576,0
1776866152814559,24,18,0,0,0,0,138,3737,5888,1272,0
1776866152749029,24,17,0,0,0,0,90,3745,6912,1272,0
1776866152683506,24,15,0,0,0,0,42,3753,5376,3320,0
1776866152749038,24,16,0,0,0,0,250,3760,5376,2808,0
1776866152683499,24,17,0,0,0,0,202,3768,4864,3320,0
1776866152683495,25,17,0,0,0,0,255,-1,-1,-1,255
1776866161072295,-1,-1,-16230,14,-2024,9,67,-32257,6399,4352,0
1776861866105000,0,0,-14230,14,-2026,5,71,-32257,6655,4096,0
1776861866105000,0,0,-12230,14,-2027,9,68,32511,6911,4096,0
1776861866105000,0,0,-10230,14,-2029,12,69,32255,6655,4352,0
1776861866105000,0,0,-8230,14,-2026,13,68,32511,6399,4608,0
1776861866105000,0,0,-6230,14,-2029,8,74,-32513,6399,4608,0
1776861866105000,0,0,-4230,14,-2020,9,69,-32513,6399,4352,0
1776861866105000,0,0,-2230,14,-2019,12,66,-32513,6911,4352,0
1776861866105000,0,0,-230,14,-2015,8,61,-32513,6655,4352,0
1776861866105000,0,0,1770,15,-2016,7,62,32767,6911,4352,0
1776861866105000,0,0,-1,-1,-1,-1,255,-1,-1,-1,255
1776861867091810,-2022,5,-190,-128,27,17,0,0,0,0,0
1776861867093810,-2021,12,-189,-129,26,17,0,0,0,0,0
1776861867095810,-2023,12,-191,-128,24,16,0,0,0,0,0
1776861867097810,-2026,7,-182,-127,26,16,0,0,0,0,0
1776861867099810,-2021,8,-189,-128,26,17,0,0,0,0,0
1776861867101810,-2022,8,-195,-129,26,17,0,0,0,0,0
1776861867103810,-2019,12,-192,-130,25,15,0,0,0,0,0
1776861867105809,-2018,11,-195,-129,24,16,0,0,0,0,0
1776861867107809,-2021,10,-202,-129,25,17,0,0,0,0,0
1776861867109809,-2019,6,-197,-130,26,16,0,0,0,0,0
1776866161072295,-1,-1,-1,-1,-1,-1,217,3932,6912,1784,0
1776866152617957,25,15,0,0,0,0,169,3940,7168,2296,0
1776866152552419,26,14,0,0,0,0,121,3948,7680,2808,0
1776866152749039,24,15,0,0,0,0,73,3956,6656,3832,0
1776866152749034,22,17,0,0,0,0,25,3964,6656,1016,0
1776866152683493,22,17,0,0,0,0,233,3971,6912,1784,0
1776866152749036,23,16,0,0,0,0,185,3979,7936,1528,0
1776866152683494,23,16,0,0,0,0,137,3987,6912,2808,0
1776866152749038,24,14,0,0,0,0,89,3995,6400,1528,0
1776866152749028,24,16,0,0,0,0,41,4003,6656,2552,0
1776866152814566,24,16,0,0,0,0,255,-1,-1,-1,255
1776866161072295,-1,-1,-21767,15,-2020,9,63,-32257,6911,4352,0
1776861866105000,0,0,-19767,15,-2019,7,56,32767,6911,3840,0
1776861866105000,0,0,-17767,15,-2021,3,61,32767,6911,3840,0
1776861866105000,0,0,-15767,15,-2021,7,54,-32001,6655,4608,0
1776861866105000,0,0,-13767,15,-2028,8,52,-32513,6911,4864,0
1776861866105000,0,0,-11767,15,-2025,16,49,32767,6655,4352,0
1776861866105000,0,0,-9767,15,-2020,15,61,32767,6911,4096,0
1776861866105000,0,0,-7767,15,-2022,15,65,32767,7167,4352,0
1776861866105000,0,0,-5767,15,-2026,10,69,-32513,6655,3840,0
1776861866105000,0,0,-3767,15,-2020,10,67,-32513,6143,3840,0
1776861866105000,0,0,-1,-1,-1,-1,255,-1,-1,-1,255
1776861867151809,-2029,12,-190,-127,24,16,0,0,0,0,0
1776861867153809,-2024,10,-190,-128,25,16,0,0,0,0,0
1776861867155809,-2021,7,-189,-130,27,17,0,0,0,0,0
1776861867157809,-2018,8,-195,-129,29,17,0,0,0,0,0
1776861867159809,-2014,10,-193,-128,30,17,0,0,0,0,0
1776861867161809,-2015,11,-207,-129,28,17,0,0,0,0,0
1776861867163809,-2016,14,-199,-130,26,16,0,0,0,0,0
1776861867165809,-2019,13,-194,-128,24,15,0,0,0,0,0
1776861867167809,-2019,8,-189,-129,26,17,0,0,0,0,0
1776861867169809,-2021,14,-191,-127,27,17,0,0,0,0,0
1776866161072295,-1,-1,-1,-1,-1,-1,57,4167,7168,3064,0
1776866152814558,27,17,0,0,0,0,9,4175,7168,2808,0
1776866152749024,25,16,0,0,0,0,217,4182,6144,4088,0
1776866152814568,24,17,0,0,0,0,169,4190,7168,2808,0
1776866152749032,26,18,0,0,0,0,121,4198,7168,3320,0
1776866152749032,28,17,0,0,0,0,73,4206,7680,2552,0
1776866152683496,27,17,0,0,0,0,25,4214,7680,2808,0
1776866152683496,25,17,0,0,0,0,233,4221,7680,1784,0
1776866152617966,23,16,0,0,0,0,185,4229,6400,1784,0
1776866152683495,22,16,0,0,0,0,137,4237,6656,2808,0
1776866152683495,22,16,0,0,0,0,255,-1,-1,-1,255
1776866161072295,-1,-1,-27303,16,-2013,8,57,32767,6655,3840,0
1776861866105000,0,0,-25303,16,-2015,9,66,32767,6655,4352,0
1776861866105000,0,0,-23303,16,-2022,7,72,32511,6143,4096,0
1776861866105000,0,0,-21303,16,-2025,8,68,32767,6399,3840,0
1776861866105000,0,0,-19303,16,-2022,12,65,-32257,5887,3584,0
1776861866105000,0,0,-17303,16,-2023,13,60,32767,6399,3584,0
1776861866105000,0,0,-15303,16,-2028,9,56,32767,7167,3840,0
1776861866105000,0,0,-13303,16,-2025,9,60,-32257,6143,4096,0
1776861866105000,0,0,-11303,16,-2019,6,57,-32513,6143,4096,0
1776861866105000,0,0,-9303,16,-2016,8,59,32767,6655,4352,0
1776861866105000,0,0,-1,-1,-1,-1,255,-1,-1,-1,255
1776861867211809,-2022,5,-184,-129,26,15,0,0,0,0,0
1776861867213809,-2020,13,-186,-128,26,16,0,0,0,0,0
1776861867215809,-2019,7,-191,-129,25,17,0,0,0,0,0
1776861867217809,-2019,10,-186,-128,24,15,0,0,0,0,0
1776861867219809,-2024,17,-191,-127,24,16,0,0,0,0,0
1776861867221809,-2021,13,-198,-128,26,16,0,0,0,0,0
1776861867223809,-2021,11,-199,-127,26,16,0,0,0,0,0
1776861867225809,-2028,10,-190,-127,26,17,0,0,0,0,0
1776861867227809,-2024,4,-190,-129,26,16,0,0,0,0,0
1776861867229809,-2021,14,-197,-129,25,15,0,0,0,0,0
1776866161072295,-1,-1,-1,-1,-1,-1,153,4401,7168,3320,0
1776866152814569,25,16,0,0,0,0,60,4597,6400,3064,0
1776866152749028,21,17,0,0,0,0,12,4605,5888,3320,0
1776866152814570,25,16,0,0,0,0,220,4612,6656,2552,0
1776866152814577,25,17,0,0,0,0,172,4620,7168,3064,0
1776866152749036,24,17,0,0,0,0,124,4628,6144,2552,0
1776866152683496,24,17,0,0,0,0,76,4636,6656,3064,0
1776866152814565,27,16,0,0,0,0,28,4644,7680,3064,0
1776866152683495,27,14,0,0,0,0,236,4651,8192,3064,0
1776866152683489,27,17,0,0,0,0,188,4659,7168,2040,0
1776866152683491,26,18,0,0,0,0,255,-1,-1,-1,255
1776866161072295,-1,-1,15244,18,-2023,17,63,-32513,6655,4096,0
1776861866105000,0,0,17244,18,-2025,9,66,32511,6655,4352,0
1776861866105000,0,0,19244,18,-2024,6,60,32511,6911,4352,0
1776861866105000,0,0,21244,18,-2020,7,64,-32513,7167,4096,0
1776861866105000,0,0,23244,18,-2019,7,59,32767,6399,3840,0
1776861866105000,0,0,25244,18,-2021,10,62,-32257,6655,4096,0
1776861866105000,0,0,27244,18,-2023,10,62,32767,7423,4096,0
1776861866105000,0,0,29244,18,-2026,14,59,-32513,7167,3584,0
1776861866105000,0,0,31244,18,-2029,13,59,-32257,6911,3840,0
1776861866105000,0,0,-32292,18,-2026,14,64,-32513,6911,4096,0
1776861866105000,0,0,-1,-1,-1,-1,255,-1,-1,-1,255
1776861867319892,-2022,10,-192,-129,26,18,0,0,0,0,0
1776861867321892,-2015,12,-191,-128,22,16,0,0,0,0,0
1776861867323892,-2014,13,-186,-129,23,17,0,0,0,0,0
1776861867325892,-2018,10,-184,-129,24,16,0,0,0,0,0
1776861867327892,-2017,6,-186,-128,24,16,0,0,0,0,0
1776861867329892,-2019,11,-194,-129,26,16,0,0,0,0,0
1776861867331892,-2022,9,-191,-130,26,16,0,0,0,0,0
1776861867333892,-2024,12,-191,-130,25,15,0,0,0,0,0
1776861867335892,-2020,12,-191,-129,24,15,0,0,0,0,0
1776861867337892,-2018,13,-191,-128,25,15,0,0,0,0,0
1776866161072295,-1,-1,-1,-1,-1,-1,204,4823,6912,2808,0
1776866152749026,27,14,0,0,0,0,156,4831,6912,3064,0
1776866152749023,25,14,0,0,0,0,108,4839,7936,3064,0
1776866152749032,25,16,0,0,0,0,60,4847,6912,3576,0
1776866152814572,24,16,0,0,0,0,12,4855,7168,4344,0
1776866152749038,24,16,0,0,0,0,220,4862,6400,3064,0
1776866152683498,25,17,0,0,0,0,172,4870,6144,2040,0
1776866152814562,25,17,0,0,0,0,124,4878,7168,2552,0
1776866152814559,23,16,0,0,0,0,76,4886,6656,2808,0
1776866152749029,23,17,0,0,0,0,28,4894,6144,2552,0
1776866152749033,23,19,0,0,0,0,255,-1,-1,-1,255
1776866161072295,-1,-1,9708,19,-2028,9,67,-32257,6655,4352,0
1776861866105000,0,0,11708,19,-2026,13,65,32511,6911,3840,0
1776861866105000,0,0,13708,19,-2022,10,61,32255,7423,3584,0
1776861866105000,0,0,15708,19,-2020,5,69,32511,7935,3840,0
1776861866105000,0,0,17708,19,-2022,13,65,-32513,7679,4096,0
1776861866105000,0,0,19708,19,-2018,9,60,32767,6911,3840,0
1776861866105000,0,0,21708,19,-2020,8,59,32767,6143,3840,0
1776861866105000,0,0,23708,19,-2020,11,70,-32513,6399,3840,0
1776861866105000,0,0,25708,19,-2024,15,67,-32001,6143,4096,0
1776861866105000,0,0,27708,19,-2027,18,72,-32001,6399,4096,0
1776861866105000,0,0,-1,-1,-1,-1,255,-1,-1,-1,255
1776861867379892,-2024,17,-182,-127,25,15,0,0,0,0,0
1776861867381892,-2021,13,-189,-129,25,15,0,0,0,0,0
1776861867383892,-2022,11,-190,-130,26,15,0,0,0,0,0
1776861867385892,-2022,13,-189,-129,26,15,0,0,0,0,0
1776861867387892,-2022,11,-190,-128,25,16,0,0,0,0,0
1776861867389892,-2018,11,-196,-129,27,17,0,0,0,0,0
1776861867391892,-2017,7,-202,-129,25,16,0,0,0,0,0
1776861867393892,-2019,9,-199,-128,24,14,0,0,0,0,0
1776861867395892,-2021,9,-196,-126,25,15,0,0,0,0,0
1776861867397892,-2023,13,-190,-127,25,15,0,0,0,0,0
1776866161072295,-1,-1,-1,-1,-1,-1,44,5058,6400,3832,0
1776866152814572,23,16,0,0,0,0,252,5065,7168,2808,0
1776866152749038,23,16,0,0,0,0,204,5073,7680,3320,0
1776866152749026,21,15,0,0,0,0,156,5081,6656,2808,0
1776866152683501,22,13,0,0,0,0,108,5089,7168,3064,0
1776866152683493,24,14,0,0,0,0,60,5097,6912,2552,0
1776866152617959,27,16,0,0,0,0,12,5105,7680,3576,0
1776866152617967,27,15,0,0,0,0,220,5112,6912,3576,0
1776866152749038,25,15,0,0,0,0,172,5120,6400,3064,0
1776866152814573,26,16,0,0,0,0,124,5128,6144,2040,0
1776866152880099,25,17,0,0,0,0,255,-1,-1,-1,255
1776866161072295,-1,-1,4172,20,-2022,11,64,32767,6655,4352,0
1776861866105000,0,0,6172,20,-2018,14,64,-32257,6399,4096,0
1776861866105000,0,0,8172,20,-2022,5,73,-32513,6143,3840,0
1776861866105000,0,0,10172,20,-2019,9,63,-32513,5887,3840,0
1776861866105000,0,0,12172,20,-2019,7,62,-32513,6143,4096,0
1776861866105000,0,0,14172,20,-2028,8,61,-32513,5887,3840,0
1776861866105000,0,0,16172,20,-2026,12,60,-32513,6143,3840,0
1776861866105000,0,0,18172,20,-2023,13,60,32767,7167,3584,0
1776861866105000,0,0,20172,20,-2026,15,58,32767,6655,3584,0
1776861866105000,0,0,22172,20,-2022,7,58,-32513,6143,3840,0
1776861866105000,0,0,-1,-1,-1,-1,255,-1,-1,-1,255
1776861867439892,-2023,5,-199,-129,24,15,0,0,0,0,0
1776861867441892,-2020,13,-196,-128,25,17,0,0,0,0,0
1776861867443892,-2021,15,-194,-127,25,16,0,0,0,0,0
1776861867445892,-2025,10,-189,-129,23,16,0,0,0,0,0
1776861867447892,-2022,9,-196,-129,24,16,0,0,0,0,0
1776861867449892,-2021,7,-189,-130,25,16,0,0,0,0,0
1776861867451892,-2023,8,-191,-131,26,15,0,0,0,0,0
1776861867453892,-2027,12,-187,-131,28,17,0,0,0,0,0
1776861867455892,-2014,11,-188,-129,27,18,0,0,0,0,0
1776861867457892,-2020,6,-185,-128,26,17,0,0,0,0,0
1776866161072295,-1,-1,-1,-1,-1,-1,140,5292,6400,4088,0
1776866152749033,25,16,0,0,0,0,92,5300,6400,2808,0
1776866152683494,24,15,0,0,0,0,44,5308,6144,2040,0
1776866152552434,24,16,0,0,0,0,252,5315,6656,3832,0
1776866152683498,24,17,0,0,0,0,204,5323,6912,3064,0
1776866152814564,23,16,0,0,0,0,156,5331,7168,2296,0
1776866152814562,24,16,0,0,0,0,108,5339,6912,2040,0
1776866152617960,26,17,0,0,0,0,60,5347,7168,2808,0
1776866152683501,26,17,0,0,0,0,12,5355,6144,2296,0
1776866152814573,26,18,0,0,0,0,220,5362,6400,2296,0
1776866152749039,24,16,0,0,0,0,255,-1,-1,-1,255
1776866161072295,-1,-1,-1364,20,-2018,4,66,32767,6399,3840,0
1776861866105000,0,0,636,21,-2018,4,61,-32513,6655,4096,0
1776861866105000,0,0,2636,21,-2013,6,68,32767,6143,3840,0
1776861866105000,0,0,4636,21,-2020,9,60,-32513,5887,3840,0
1776861866105000,0,0,6636,21,-2021,8,64,-32513,6143,4352,0
1776861866105000,0,0,8636,21,-2019,12,67,-32513,6143,4352,0
1776861866105000,0,0,10636,21,-2023,14,63,-32257,6399,3584,0
1776861866105000,0,0,12636,21,-2019,10,62,-32257,6399,3840,0
1776861866105000,0,0,14636,21,-2021,6,67,32767,6143,4352,0
1776861866105000,0,0,16636,21,-2026,6,65,32767,6655,4096,0
1776861866105000,0,0,-1,-1,-1,-1,255,-1,-1,-1,255
1776861867499892,-2025,12,-193,-129,24,16,0,0,0,0,0
1776861867501892,-2022,13,-196,-129,26,18,0,0,0,0,0
1776861867503892,-2021,9,-189,-129,27,15,0,0,0,0,0
1776861867505892,-2021,9,-195,-128,25,16,0,0,0,0,0
1776861867507892,-2024,8,-193,-127,22,17,0,0,0,0,0
1776861867509892,-2022,11,-191,-128,23,17,0,0,0,0,0
1776861867511892,-2023,10,-182,-129,23,17,0,0,0,0,0
1776861867513892,-2021,12,-185,-130,23,17,0,0,0,0,0
1776861867515892,-2021,8,-191,-130,24,18,0,0,0,0,0
1776861867517892,-2021,7,-187,-129,26,16,0,0,0,0,0
1776866161072295,-1,-1,-1,-1,-1,-1,236,5526,7168,2808,0
1776866152749031,26,15,0,0,0,0,188,5534,7680,3064,0
1776866152749024,25,15,0,0,0,0,140,5542,7424,4088,0
1776866152749035,26,15,0,0,0,0,92,5550,8192,3832,0
1776866152749029,28,15,0,0,0,0,44,5558,7424,3832,0
1776866152814576,28,17,0,0,0,0,252,5565,6656,2808,0
1776866152683491,25,17,0,0,0,0,204,5573,7168,3064,0
1776866152552415,25,18,0,0,0,0,156,5581,7168,2808,0
1776866152683496,26,16,0,0,0,0,108,5589,5376,2296,0
1776866152749031,25,16,0,0,0,0,60,5597,5120,2552,0
1776866152814560,23,17,0,0,0,0,255,-1,-1,-1,255
1776866161072295,-1,-1,-6900,21,-2028,8,67,-32257,6399,4096,0
1776861866105000,0,0,-4900,21,-2022,12,67,-32257,6655,3840,0
1776861866105000,0,0,-2900,21,-2021,17,64,32767,6911,3840,0
1776861866105000,0,0,-900,21,-2017,13,56,32767,6655,3840,0
1776861866105000,0,0,1100,22,-2019,10,61,32767,7167,4352,0
1776861866105000,0,0,3100,22,-2020,14,58,32767,6911,4096,0
1776861866105000,0,0,5100,22,-2016,11,65,32767,6655,3840,0
1776861866105000,0,0,7100,22,-2019,15,64,32767,6655,4096,0
1776861866105000,0,0,9100,22,-2015,12,64,-32513,6655,4352,0
1776861866105000,0,0,11100,22,-2020,13,71,-32257,6399,4352,0
1776861866105000,0,0,-1,-1,-1,-1,255,-1,-1,-1,255
1776861867559892,-2024,16,-174,-125,22,18,0,0,0,0,0
1776861867561892,-2022,11,-179,-126,24,16,0,0,0,0,0
1776861867563892,-2017,12,-188,-127,26,15,0,0,0,0,0
1776861867565892,-2018,10,-192,-126,26,15,0,0,0,0,0
1776861867567892,-2018,11,-194,-127,26,15,0,0,0,0,0
1776861867569892,-2021,11,-193,-129,26,17,0,0,0,0,0
1776861867571892,-2025,13,-184,-127,24,17,0,0,0,0,0
1776861867573892,-2026,7,-188,-128,25,17,0,0,0,0,0
1776861867575892,-2020,6,-191,-129,26,15,0,0,0,0,0
1776861867577892,-2013,8,-186,-130,25,14,0,0,0,0,0
1776866161072295,-1,-1,-1,-1,-1,-1,76,5761,6912,2552,0
1776866152552429,24,14,0,0,0,0,28,5769,7424,2808,0
1776866152552422,26,17,0,0,0,0,236,5776,5888,2296,0
1776866152683495,26,18,0,0,0,0,188,5784,4608,3320,0
1776866152749022,25,18,0,0,0,0,140,5792,5632,3320,0
1776866152683481,26,15,0,0,0,0,92,5800,5888,3320,0
1776866152683488,25,13,0,0,0,0,44,5808,6400,2296,0
1776866152617953,25,13,0,0,0,0,252,5815,6912,2296,0
1776866152552422,24,15,0,0,0,0,204,5823,6912,1272,0
1776866152617950,23,16,0,0,0,0,156,5831,6144,3320,0
1776866152683495,24,16,0,0,0,0,255,-1,-1,-1,255
1776866161072295,-1,-1,-12436,22,-2025,14,75,32511,6655,4352,0
1776861866105000,0,0,-27994,23,-2018,11,71,-32513,6399,4352,0
1776861866105000,0,0,-25994,23,-2019,8,71,-32513,6911,4352,0
1776861866105000,0,0,-23994,23,-2022,11,58,-32513,7167,3840,0
1776861866105000,0,0,-21994,23,-2024,12,62,32767,6399,3584,0
1776861866105000,0,0,-19994,23,-2020,16,60,-32513,6911,3840,0
1776861866105000,0,0,-17994,23,-2018,14,61,-32513,6911,4096,0
1776861866105000,0,0,-15994,23,-2018,12,59,32767,6911,4352,0
1776861866105000,0,0,-13994,23,-2018,10,64,32511,7167,4096,0
1776861866105000,0,0,-11994,23,-2023,11,69,32767,7167,4096,0
1776861866105000,0,0,-1,-1,-1,-1,255,-1,-1,-1,255
1776861867667870,-2020,9,-194,-129,24,16,0,0,0,0,0
1776861867669870,-2026,10,-193,-127,25,16,0,0,0,0,0
1776861867671870,-2026,8,-192,-126,24,16,0,0,0,0,0
1776861867673870,-2020,8,-192,-128,24,15,0,0,0,0,0
1776861867675870,-2018,4,-195,-128,24,15,0,0,0,0,0
1776861867677870,-2022,7,-192,-127,23,16,0,0,0,0,0
1776861867679870,-2024,6,-194,-129,24,15,0,0,0,0,0
1776861867681870,-2020,7,-193,-128,25,16,0,0,0,0,0
1776861867683870,-2022,12,-193,-128,26,16,0,0,0,0,0
1776861867685870,-2021,9,-190,-130,26,15,0,0,0,0,0
1776866161072295,-1,-1,-1,-1,-1,-1,22,6183,7424,2296,0
1776866152617962,26,16,0,0,0,0,230,6190,6912,3064,0
1776866152617959,28,15,0,0,0,0,182,6198,6400,2552,0
1776866152617971,27,16,0,0,0,0,134,6206,7424,2296,0
1776866152683501,26,17,0,0,0,0,86,6214,6912,2808,0
1776866152749032,25,17,0,0,0,0,38,6222,6656,4344,0
1776866152683493,23,18,0,0,0,0,246,6229,6656,3576,0
1776866152683488,25,17,0,0,0,0,198,6237,8448,1528,0
1776866152683497,25,16,0,0,0,0,150,6245,8704,2040,0
1776866152814577,23,16,0,0,0,0,102,6253,7424,3064,0
1776866152749033,23,17,0,0,0,0,255,-1,-1,-1,255
1776866161072295,-1,-1,30006,24,-2022,11,62,32767,6655,4352,0
1776861866105000,0,0,32006,24,-2023,11,57,-32513,7167,4608,0
1776861866105000,0,0,-31530,24,-2022,14,57,32767,6911,4864,0
1776861866105000,0,0,-29530,24,-2022,9,61,-32513,6655,4352,0
1776861866105000,0,0,-27530,24,-2018,13,50,-32001,6655,4096,0
1776861866105000,0,0,-25530,24,-2022,15,58,-32257,6143,3840,0
1776861866105000,0,0,-23530,24,-2022,12,63,-32001,6143,3840,0
1776861866105000,0,0,-21530,24,-2018,14,61,-32257,5887,4352,0
1776861866105000,0,0,-19530,24,-2023,16,71,32767,6399,3840,0
1776861866105000,0,0,-17530,24,-2018,12,72,32767,6399,3840,0
1776861866105000,0,0,-1,-1,-1,-1,255,-1,-1,-1,255
1776861867727870,-2020,11,-183,-129,25,15,0,0,0,0,0
1776861867729870,-2022,11,-195,-127,23,15,0,0,0,0,0
1776861867731870,-2022,11,-202,-128,25,17,0,0,0,0,0
1776861867733870,-2023,13,-196,-127,26,16,0,0,0,0,0
1776861867735870,-2023,5,-183,-127,26,16,0,0,0,0,0
1776861867737870,-2022,4,-193,-128,26,15,0,0,0,0,0
1776861867739870,-2023,8,-196,-127,25,17,0,0,0,0,0
1776861867741870,-2022,13,-193,-126,24,17,0,0,0,0,0
1776861867743870,-2023,8,-200,-126,27,17,0,0,0,0,0
1776861867745870,-2018,6,-199,-129,27,18,0,0,0,0,0
1776866161072295,-1,-1,-1,-1,-1,-1,118,6417,6400,2040,0
1776866152749036,25,17,0,0,0,0,70,6425,6400,2552,0
1776866152880102,24,16,0,0,0,0,22,6433,6912,2040,0
1776866152880094,24,17,0,0,0,0,230,6440,6656,1784,0
1776866152749035,24,17,0,0,0,0,182,6448,6144,2552,0
1776866152814574,24,17,0,0,0,0,134,6456,6656,3064,0
1776866152880103,25,15,0,0,0,0,86,6464,6144,3576,0
1776866152880096,25,15,0,0,0,0,38,6472,6144,4088,0
1776866152749029,25,16,0,0,0,0,246,6479,5888,3576,0
1776866152683499,25,17,0,0,0,0,198,6487,5376,4088,0
1776866152749035,24,16,0,0,0,0,255,-1,-1,-1,255
1776866161072295,-1,-1,24470,25,-2022,15,69,32767,6399,3840,0
1776861866105000,0,0,26470,25,-2016,15,70,32511,7167,4096,0
1776861866105000,0,0,28470,25,-2011,11,67,32511,6911,4096,0
1776861866105000,0,0,30470,25,-2023,10,66,32511,7167,4096,0
1776861866105000,0,0,32470,25,-2019,14,60,32767,7423,4096,0
1776861866105000,0,0,-31066,25,-2023,5,60,32511,7423,4096,0
1776861866105000,0,0,-29066,25,-2021,6,65,32767,7423,4096,0
1776861866105000,0,0,-27066,25,-2019,10,70,-32513,7167,3840,0
1776861866105000,0,0,-25066,25,-2017,12,63,32511,6655,3584,0
1776861866105000,0,0,-23066,25,-2017,10,65,32255,6143,3840,0
1776861866105000,0,0,-1,-1,-1,-1,255,-1,-1,-1,255
1776861867787870,-2021,11,-195,-128,23,16,0,0,0,0,0
1776861867789870,-2027,8,-185,-127,23,15,0,0,0,0,0
1776861867791870,-2026,7,-195,-128,27,17,0,0,0,0,0
1776861867793870,-2022,17,-197,-128,27,17,0,0,0,0,0
1776861867795870,-2018,15,-194,-129,26,17,0,0,0,0,0
1776861867797870,-2022,14,-204,-127,24,18,0,0,0,0,0
1776861867799870,-2022,11,-190,-127,24,17,0,0,0,0,0
1776861867801870,-2019,11,-192,-128,24,18,0,0,0,0,0
1776861867803870,-2019,9,-192,-129,26,17,0,0,0,0,0
1776861867805870,-2017,14,-189,-128,28,16,0,0,0,0,0
1776866161072295,-1,-1,-1,-1,-1,-1,214,6651,7424,4600,0
1776866152749041,25,16,0,0,0,0,166,6659,6656,3064,0
1776866152749047,25,16,0,0,0,0,118,6667,6400,3320,0
1776866152749034,26,15,0,0,0,0,70,6675,6400,2808,0
1776866152749031,25,15,0,0,0,0,22,6683,5888,1784,0
1776866152749032,26,14,0,0,0,0,230,6690,5632,3320,0
1776866152749027,26,15,0,0,0,0,182,6698,6400,2552,0
1776866152814559,25,17,0,0,0,0,134,6706,6656,2552,0
1776866152749027,25,16,0,0,0,0,86,6714,6144,2040,0
1776866152683495,25,16,0,0,0,0,38,6722,6912,760,0
1776866152683497,27,16,0,0,0,0,255,-1,-1,-1,255
1776866161072295,-1,-1,18934,26,-2021,9,70,32511,7167,4352,0
1776861866105000,0,0,20934,26,-2022,12,61,-32257,6655,4352,0
1776861866105000,0,0,22934,26,-2021,9,54,-31745,6143,4352,0
1776861866105000,0,0,24934,26,-2022,14,59,-32513,6143,4352,0
1776861866105000,0,0,26934,26,-2023,8,58,-32257,6399,4352,0
1776861866105000,0,0,28934,26,-2026,8,69,-32257,6655,4352,0
1776861866105000,0,0,30934,26,-2024,7,74,-32257,6911,4352,0
1776861866105000,0,0,-32602,26,-2018,8,74,32511,6655,4608,0
1776861866105000,0,0,-30602,26,-2018,6,67,32767,6655,4864,0
1776861866105000,0,0,-28602,26,-2016,7,64,-32513,7167,4352,0
1776861866105000,0,0,-1,-1,-1,-1,255,-1,-1,-1,255
1776861867847870,-2021,5,-193,-128,26,18,0,0,0,0,0
1776861867849870,-2022,9,-202,-128,25,19,0,0,0,0,0
1776861867851870,-2018,3,-204,-128,24,18,0,0,0,0,0
1776861867853870,-2018,11,-198,-128,24,17,0,0,0,0,0
1776861867855870,-2025,12,-202,-128,24,16,0,0,0,0,0
1776861867857870,-2023,13,-194,-129,24,17,0,0,0,0,0
1776861867859870,-2024,8,-190,-130,24,18,0,0,0,0,0
1776861867861870,-2023,10,-195,-130,26,16,0,0,0,0,0
1776861867863870,-2021,9,-188,-129,25,14,0,0,0,0,0
1776861867865870,-2019,10,-196,-127,24,15,0,0,0,0,0
1776866161072295,-1,-1,-1,-1,-1,-1,54,6886,6656,2552,0
1776866152880098,25,14,0,0,0,0,6,6894,6656,2040,0
1776866152814568,25,15,0,0,0,0,214,6901,6144,760,0
1776866152683495,25,17,0,0,0,0,166,6909,6656,2808,0
1776866152683507,24,19,0,0,0,0,118,6917,8192,4344,0
1776866152749034,24,18,0,0,0,0,70,6925,7168,3576,0
1776866152683493,25,18,0,0,0,0,22,6933,7168,3832,0
1776866152749024,25,17,0,0,0,0,230,6940,7680,4344,0
1776866152683488,25,15,0,0,0,0,182,6948,7168,3064,0
1776866152617961,24,16,0,0,0,0,134,6956,7168,3320,0
1776866152617965,25,17,0,0,0,0,255,-1,-1,-1,255
1776866161072295,-1,-1,13398,27,-2025,11,61,32511,6655,4096,0
1776861866105000,0,0,15398,27,-2027,13,59,-32513,6655,4096,0
1776861866105000,0,0,17398,27,-2022,15,59,-32001,6655,4096,0
1776861866105000,0,0,19398,27,-2016,9,58,-32513,6655,3840,0
1776861866105000,0,0,21398,27,-2027,4,62,32767,6911,4096,0
1776861866105000,0,0,23398,27,-2023,10,61,-32257,6655,4608,0
1776861866105000,0,0,25398,27,-2022,8,53,32767,7167,4352,0
1776861866105000,0,0,27398,27,-2023,13,63,32767,7167,4096,0
1776861866105000,0,0,29398,27,-2026,10,59,-32513,6911,3840,0
1776861866105000,0,0,31398,27,-2022,12,56,32767,6143,4096,0
1776861866105000,0,0,-1,-1,-1,-1,255,-1,-1,-1,255
1776861867907870,-2019,12,-194,-129,23,15,0,0,0,0,0
1776861867909870,-2026,13,-186,-128,25,16,0,0,0,0,0
1776861867911870,-2021,10,-198,-127,26,16,0,0,0,0,0
1776861867913870,-2024,7,-193,-126,25,16,0,0,0,0,0
1776861867915870,-2021,10,-193,-126,26,16,0,0,0,0,0
1776861867917870,-2020,14,-202,-129,27,17,0,0,0,0,0
1776861867919870,-2017,12,-202,-130,26,18,0,0,0,0,0
1776861867921870,-2015,12,-190,-129,26,17,0,0,0,0,0
1776861867923870,-2018,10,-195,-128,23,15,0,0,0,0,0
1776861867925870,-2021,6,-200,-129,24,15,0,0,0,0,0
1776866161072295,-1,-1,-1,-1,-1,-1,150,7120,6912,1272,0
1776866152749033,25,15,0,0,0,0,102,7128,7424,248,0
1776866152683489,26,15,0,0,0,0,56,7136,6912,760,0
1776866152552421,25,14,0,0,0,0,8,7144,6912,3064,0
1776866152617961,23,14,0,0,0,0,216,7151,7424,1528,0
1776866152749026,22,14,0,0,0,0,168,7159,7424,1016,0
1776866152814558,22,13,0,0,0,0,120,7167,7936,2040,0
1776866152683489,22,15,0,0,0,0,72,7175,6656,2040,0
1776866152683490,23,15,0,0,0,0,24,7183,7168,2296,0
1776866152683489,25,16,0,0,0,0,232,7190,7936,2040,0
1776866152552431,27,18,0,0,0,0,255,-1,-1,-1,255
1776866161072295,-1,-1,7864,28,-2017,11,68,32767,6655,4352,0
1776861866105000,0,0,9864,28,-2024,10,70,-32513,6399,4096,0
1776861866105000,0,0,11864,28,-2023,4,66,32767,6399,4352,0
1776861866105000,0,0,13864,28,-2020,7,70,-32513,6911,4352,0
1776861866105000,0,0,15864,28,-2024,9,66,-32513,6911,4096,0
1776861866105000,0,0,17864,28,-2023,11,70,-32513,6655,3840,0
1776861866105000,0,0,19864,28,-2017,11,65,-32257,6911,3840,0
1776861866105000,0,0,21864,28,-2021,14,65,-32513,6399,4096,0
1776861866105000,0,0,23864,28,-2020,18,67,32255,6655,3840,0
1776861866105000,0,0,25864,28,-2019,14,70,32255,7423,3328,0
1776861866105000,0,0,-1,-1,-1,-1,255,-1,-1,-1,255
1776861867967872,-2020,9,-188,-129,27,16,0,0,0,0,0
1776861868020499,-2014,7,-188,-128,22,15,0,0,0,0,0
1776861868022499,-2018,4,-199,-129,22,17,0,0,0,0,0
1776861868024499,-2022,3,-196,-131,23,16,0,0,0,0,0
1776861868026499,-2018,6,-191,-128,23,16,0,0,0,0,0
1776861868028499,-2021,2,-189,-129,23,16,0,0,0,0,0
1776861868030499,-2023,10,-177,-129,23,17,0,0,0,0,0
1776861868032499,-2023,14,-189,-128,26,17,0,0,0,0,0
1776861868034499,-2022,13,-193,-128,25,18,0,0,0,0,0
1776861868036499,-2020,6,-194,-126,25,15,0,0,0,0,0
1776866161072295,-1,-1,-1,-1,-1,-1,187,7552,5888,2296,0
1776866152814572,25,16,0,0,0,0,139,7560,6912,3576,0
1776866152749036,25,17,0,0,0,0,91,7568,6912,2808,0
1776866152814569,24,17,0,0,0,0,43,7576,5376,2296,0
1776866152749024,26,15,0,0,0,0,251,7583,5888,3320,0
1776866152749021,26,14,0,0,0,0,203,7591,5888,3576,0
1776866152814560,24,16,0,0,0,0,155,7599,6400,2296,0
1776866152749035,26,12,0,0,0,0,107,7607,5888,3320,0
1776866152749022,25,11,0,0,0,0,59,7615,5888,3320,0
1776866152814558,27,15,0,0,0,0,11,7623,7424,3832,0
1776866152749025,28,16,0,0,0,0,255,-1,-1,-1,255
1776866161072295,-1,-1,-12581,29,-2018,10,61,32767,7679,4096,0
1776861866105000,0,0,-10581,29,-2020,14,64,32767,7167,3584,0
1776861866105000,0,0,-8581,29,-2025,13,59,32767,6655,3840,0
1776861866105000,0,0,-6581,29,-2020,13,55,-32513,6399,4096,0
1776861866105000,0,0,-4581,29,-2020,12,59,-32257,6399,4352,0
1776861866105000,0,0,-2581,29,-2023,9,53,-32513,6911,4096,0
1776861866105000,0,0,-581,29,-2024,9,55,32511,6399,4352,0
1776861866105000,0,0,1419,30,-2024,12,65,32511,6399,4096,0
1776861866105000,0,0,3419,30,-2021,14,62,-32513,6911,4096,0
1776861866105000,0,0,5419,30,-2023,9,68,-32257,6655,4096,0
1776861866105000,0,0,-1,-1,-1,-1,255,-1,-1,-1,255
1776861868078499,-2024,12,-194,-128,24,17,0,0,0,0,0
1776861868080499,-2025,11,-194,-128,23,17,0,0,0,0,0
1776861868082499,-2025,10,-189,-129,23,16,0,0,0,0,0
1776861868084499,-2019,10,-192,-129,25,15,0,0,0,0,0
1776861868086499,-2019,7,-186,-129,27,14,0,0,0,0,0
1776861868088499,-2017,9,-191,-128,26,14,0,0,0,0,0
1776861868090499,-2020,8,-193,-129,25,15,0,0,0,0,0
1776861868092499,-2026,16,-193,-129,26,15,0,0,0,0,0
1776861868094499,-2024,13,-193,-130,26,16,0,0,0,0,0
1776861868096499,-2020,9,-190,-128,25,17,0,0,0,0,0
1776866161072295,-1,-1,-1,-1,-1,-1,27,7787,7424,2552,0
1776866152683494,25,16,0,0,0,0,235,7794,6912,2552,0
1776866152617959,25,14,0,0,0,0,187,7802,6144,2808,0
1776866152683499,26,13,0,0,0,0,139,7810,7168,3832,0
1776866152749038,26,13,0,0,0,0,91,7818,7168,3576,0
1776866152814561,28,16,0,0,0,0,43,7826,6656,3064,0
1776866152683506,27,15,0,0,0,0,251,7833,7936,2040,0
1776866152617971,23,14,0,0,0,0,203,7841,7680,3832,0
1776866152683501,23,14,0,0,0,0,155,7849,6656,3576,0
1776866152683495,23,15,0,0,0,0,107,7857,6400,2552,0
1776866152683489,25,16,0,0,0,0,255,-1,-1,-1,255
1776866161072295,-1,-1,-18117,30,-2023,8,66,32767,6399,3584,0
1776861866105000,0,0,-16117,30,-2025,5,73,-32513,6143,3584,0
1776861866105000,0,0,-14117,30,-2028,6,66,-32257,5887,3584,0
1776861866105000,0,0,-12117,30,-2024,6,61,-32257,6399,3840,0
1776861866105000,0,0,-10117,30,-2026,5,65,32767,7167,3840,0
1776861866105000,0,0,-8117,30,-2028,8,64,32767,7423,3840,0
1776861866105000,0,0,-6117,30,-2021,12,69,-32513,7423,4096,0
1776861866105000,0,0,-4117,30,-2023,8,67,32767,7423,3840,0
1776861866105000,0,0,-2117,30,-2023,8,71,32767,6911,3840,0
1776861866105000,0,0,-117,30,-2026,9,62,-32257,6399,4608,0
1776861866105000,0,0,-1,-1,-1,-1,255,-1,-1,-1,255
1776861868138499,-2022,15,-193,-128,25,18,0,0,0,0,0
1776861868140499,-2026,11,-196,-128,26,17,0,0,0,0,0
1776861868142499,-2026,7,-209,-128,24,18,0,0,0,0,0
1776861868144499,-2025,4,-192,-127,25,16,0,0,0,0,0
1776861868146499,-2025,5,-181,-128,24,16,0,0,0,0,0
1776861868148499,-2024,4,-190,-129,25,15,0,0,0,0,0
1776861868150499,-2024,12,-194,-128,28,15,0,0,0,0,0
1776861868152499,-2024,16,-190,-128,28,16,0,0,0,0,0
1776861868154499,-2020,9,-193,-128,25,14,0,0,0,0,0
1776861868156499,-2026,10,-190,-128,26,15,0,0,0,0,0
1776866161072295,-1,-1,-1,-1,-1,-1,123,8021,6912,3064,0
1776866152814566,26,16,0,0,0,0,75,8029,5632,2808,0
1776866152749034,25,16,0,0,0,0,27,8037,6656,4088,0
1776866152683499,24,16,0,0,0,0,235,8044,7936,3064,0
1776866152683507,24,15,0,0,0,0,187,8052,7168,3832,0
1776866152617956,23,14,0,0,0,0,139,8060,6912,3320,0
1776866152617951,25,14,0,0,0,0,91,8068,7424,3064,0
1776866152683494,26,16,0,0,0,0,43,8076,7168,2040,0
1776866152683494,26,17,0,0,0,0,251,8083,7168,2296,0
1776866152617958,25,14,0,0,0,0,203,8091,7936,3320,0
1776866152683492,25,13,0,0,0,0,255,-1,-1,-1,255
1776866161072295,-1,-1,-23653,31,-2019,4,63,-32513,6655,3584,0
1776861866105000,0,0,-21653,31,-2018,13,59,32511,6143,3328,0
1776861866105000,0,0,-19653,31,-2020,7,59,32767,6399,3840,0
1776861866105000,0,0,-17653,31,-2019,10,64,32767,6399,4096,0
1776861866105000,0,0,-15653,31,-2019,11,60,32767,5887,3840,0
1776861866105000,0,0,-13653,31,-2020,9,66,-32513,5631,3584,0
1776861866105000,0,0,-11653,31,-2023,7,66,-32257,5887,4352,0
1776861866105000,0,0,-9653,31,-2022,10,67,-32513,5887,4352,0
1776861866105000,0,0,-7653,31,-2019,11,67,-32257,6399,3840,0
1776861866105000,0,0,-5653,31,-2026,8,71,-32257,6655,4096,0
1776861866105000,0,0,-1,-1,-1,-1,255,-1,-1,-1,255
1776861868198499,-2019,8,-194,-128,25,16,0,0,0,0,0
1776861868200499,-2020,6,-201,-128,25,15,0,0,0,0,0
1776861868202499,-2021,7,-193,-126,26,17,0,0,0,0,0
1776861868204499,-2020,10,-196,-128,25,18,0,0,0,0,0
1776861868206499,-2024,5,-189,-128,24,17,0,0,0,0,0
1776861868208499,-2020,6,-187,-128,26,16,0,0,0,0,0
1776861868210499,-2022,12,-188,-129,26,16,0,0,0,0,0
1776861868212499,-2023,8,-197,-129,27,15,0,0,0,0,0
1776861868214499,-2026,5,-194,-129,27,14,0,0,0,0,0
1776861868216499,-2026,6,-192,-128,25,15,0,0,0,0,0
1776866161072295,-1,-1,-1,-1,-1,-1,219,8255,6400,3576,0
1776866152814571,24,14,0,0,0,0,171,8263,6144,2808,0
1776866152749025,24,14,0,0,0,0,123,8271,5888,3320,0
1776866152683486,26,16,0,0,0,0,75,8279,7936,3320,0
1776866152683500,27,17,0,0,0,0,27,8287,7168,5112,0
1776866152683491,24,19,0,0,0,0,235,8294,6656,3320,0
1776866152617956,21,18,0,0,0,0,187,8302,6656,2808,0
1776866152683502,20,17,0,0,0,0,139,8310,5888,2552,0
1776866152617969,25,16,0,0,0,0,91,8318,5632,2552,0
1776866152814579,25,16,0,0,0,0,43,8326,5632,1784,0
1776866152814574,23,15,0,0,0,0,255,-1,-1,-1,255
1776866161072295,-1,-1,-29189,32,-2020,6,65,-32513,6399,4096,0
1776861866105000,0,0,-27189,32,-2016,8,62,-32257,6399,4096,0
1776861866105000,0,0,-25189,32,-2019,10,65,-32257,6143,4096,0
1776861866105000,0,0,-23189,32,-2021,11,66,32767,6399,4352,0
1776861866105000,0,0,-21189,32,-2021,13,64,32767,6655,4352,0
1776861866105000,0,0,-19189,32,-2022,11,66,32767,7167,4096,0
1776861866105000,0,0,-17189,32,-2018,11,57,32767,6655,3840,0
1776861866105000,0,0,-15189,32,-2015,10,49,-32513,6399,4096,0
1776861866105000,0,0,-13189,32,-2018,8,64,-32513,6655,4352,0
1776861866105000,0,0,-11189,32,-2019,13,71,32767,6911,4096,0
1776861866105000,0,0,-1,-1,-1,-1,255,-1,-1,-1,255
1776861868258499,-2024,8,-185,-129,25,16,0,0,0,0,0
1776861868260499,-2022,11,-190,-129,25,16,0,0,0,0,0
1776861868262499,-2017,8,-185,-127,24,18,0,0,0,0,0
1776861868264499,-2016,9,-190,-127,24,17,0,0,0,0,0
1776861868266499,-2018,10,-191,-128,26,15,0,0,0,0,0
1776861868268499,-2019,13,-191,-129,25,15,0,0,0,0,0
1776861868270499,-2024,14,-196,-126,26,15,0,0,0,0,0
1776861868272499,-2019,9,-192,-126,27,16,0,0,0,0,0
1776861868274499,-2018,10,-195,-127,24,16,0,0,0,0,0
1776861868276499,-2025,9,-196,-129,21,15,0,0,0,0,0
1776866161072295,-1,-1,-1,-1,-1,-1,59,8490,6400,1784,0
1776866152749025,23,14,0,0,0,0,11,8498,5120,2040,0
1776866152814575,24,15,0,0,0,0,219,8505,5120,2552,0
1776866152617963,23,16,0,0,0,0,171,8513,5120,3832,0
1776866152617960,23,17,0,0,0,0,123,8521,6144,1272,0
1776866152683499,23,17,0,0,0,0,75,8529,6656,1016,0
1776866152749023,24,16,0,0,0,0,27,8537,5376,1528,0
1776866152617956,27,15,0,0,0,0,235,8544,6656,1016,0
1776866152749024,27,14,0,0,0,0,187,8552,6144,2040,0
1776866152749027,26,17,0,0,0,0,139,8560,6400,2296,0
1776866152749033,25,17,0,0,0,0,255,-1,-1,-1,255
1776866161072295,-1,-1,30811,33,-2021,11,62,-32513,6655,3840,0
1776861866105000,0,0,-32725,33,-2018,10,57,32767,6911,4096,0
1776861866105000,0,0,-30725,33,-2018,9,54,32511,6655,4352,0
1776861866105000,0,0,-28725,33,-2019,11,60,32767,6655,4096,0
1776861866105000,0,0,-26725,33,-2023,5,68,-32001,6655,4096,0
1776861866105000,0,0,-24725,33,-2021,13,66,-32001,6655,4096,0
1776861866105000,0,0,-22725,33,-2019,11,64,32767,6911,3840,0
1776861866105000,0,0,-20725,33,-2021,13,62,32511,6655,4096,0
1776861866105000,0,0,-18725,33,-2024,9,55,32767,6655,4096,0
1776861866105000,0,0,-16725,33,-2022,6,53,32767,6399,4096,0
1776861866105000,0,0,-1,-1,-1,-1,255,-1,-1,-1,255
1776861868318499,-2025,8,-197,-128,23,17,0,0,0,0,0
1776861868320499,-2024,11,-193,-127,24,16,0,0,0,0,0
1776861868322499,-2021,14,-188,-127,25,16,0,0,0,0,0
1776861868324499,-2025,11,-197,-128,26,16,0,0,0,0,0
1776861868326499,-2019,10,-198,-128,26,16,0,0,0,0,0
1776861868328499,-2026,10,-196,-129,26,17,0,0,0,0,0
1776861868330499,-2027,11,-195,-130,23,17,0,0,0,0,0
1776861868332499,-2027,12,-187,-129,25,17,0,0,0,0,0
1776861868334499,-2025,15,-199,-127,27,17,0,0,0,0,0
1776861868336499,-2022,12,-208,-129,26,18,0,0,0,0,0
1776866161072295,-1,-1,-1,-1,-1,-1,155,8724,7424,3064,0
1776866152617953,26,18,0,0,0,0,106,8919,7680,2808,0
1776866152552436,27,16,0,0,0,0,58,8927,6912,4344,0
1776866152683494,26,16,0,0,0,0,10,8935,6656,3320,0
1776866152814564,25,16,0,0,0,0,218,8942,6656,3832,0
1776866152749034,23,17,0,0,0,0,170,8950,7168,3064,0
1776866152814557,24,14,0,0,0,0,122,8958,7424,2040,0
1776866152945636,24,15,0,0,0,0,74,8966,6144,3576,0
1776866152814579,25,17,0,0,0,0,26,8974,4864,3576,0
1776866152683497,25,17,0,0,0,0,234,8981,5632,3064,0
1776866152683496,27,17,0,0,0,0,255,-1,-1,-1,255
1776866161072295,-1,-1,7610,35,-2024,16,59,32767,6911,4096,0
1776861866105000,0,0,9610,35,-2015,12,58,32511,6911,3840,0
1776861866105000,0,0,11610,35,-2015,10,61,-32513,7167,3840,0
1776861866105000,0,0,13610,35,-2014,10,65,-32513,6911,3840,0
1776861866105000,0,0,15610,35,-2018,16,67,32767,6911,4096,0
1776861866105000,0,0,17610,35,-2020,19,64,-32513,7167,4096,0
1776861866105000,0,0,19610,35,-2024,9,74,32767,7167,4096,0
1776861866105000,0,0,21610,35,-2019,10,67,32767,6911,4096,0
1776861866105000,0,0,23610,35,-2019,11,61,-32257,6655,3840,0
1776861866105000,0,0,25610,35,-2015,5,63,-32513,6143,3840,0
1776861866105000,0,0,-1,-1,-1,-1,255,-1,-1,-1,255
1776861868426370,-2016,12,-192,-130,22,16,0,0,0,0,0
1776861868428370,-2023,11,-190,-128,26,16,0,0,0,0,0
1776861868430370,-2018,13,-193,-128,26,16,0,0,0,0,0
1776861868432370,-2017,7,-197,-129,26,16,0,0,0,0,0
1776861868434370,-2016,8,-200,-129,25,16,0,0,0,0,0
1776861868436370,-2016,11,-198,-129,25,16,0,0,0,0,0
1776861868438370,-2019,14,-195,-128,25,16,0,0,0,0,0
1776861868440370,-2021,13,-192,-127,25,17,0,0,0,0,0
1776861868442370,-2020,14,-192,-128,25,18,0,0,0,0,0
1776861868444370,-2026,8,-195,-128,25,15,0,0,0,0,0
1776866161072295,-1,-1,-1,-1,-1,-1,250,9145,7424,2808,0
1776866152814570,24,15,0,0,0,0,202,9153,8448,2808,0
1776866152814562,25,15,0,0,0,0,154,9161,6912,3064,0
1776866152749037,26,15,0,0,0,0,106,9169,7936,2808,0
1776866152617954,26,16,0,0,0,0,58,9177,7936,2808,0
1776866152617957,27,15,0,0,0,0,10,9185,8192,2808,0
1776866152683501,26,15,0,0,0,0,218,9192,6656,2040,0
1776866152683494,26,16,0,0,0,0,170,9200,6656,3064,0
1776866152749029,25,17,0,0,0,0,122,9208,5120,3064,0
1776866152683488,26,16,0,0,0,0,74,9216,5376,3832,0
1776866152683488,26,16,0,0,0,0,255,-1,-1,-1,255
1776866161072295,-1,-1,2074,36,-2021,11,61,-32513,6655,4096,0
1776861866105000,0,0,4074,36,-2023,9,57,-32513,6399,3840,0
1776861866105000,0,0,6074,36,-2026,12,54,32767,6399,3840,0
1776861866105000,0,0,8074,36,-2021,14,61,32767,6655,3840,0
1776861866105000,0,0,10074,36,-2026,14,73,-32257,6655,3584,0
1776861866105000,0,0,12074,36,-2021,7,67,32511,6399,3584,0
1776861866105000,0,0,14074,36,-2019,6,63,32511,6143,3840,0
1776861866105000,0,0,16074,36,-2018,7,68,32767,6911,4096,0
1776861866105000,0,0,18074,36,-2020,3,66,-32257,6911,4096,0
1776861866105000,0,0,20074,36,-2023,7,54,-32257,6655,3840,0
1776861866105000,0,0,-1,-1,-1,-1,255,-1,-1,-1,255
1776861868486370,-2023,11,-200,-129,25,18,0,0,0,0,0
1776861868488370,-2025,14,-198,-129,24,15,0,0,0,0,0
1776861868490370,-2025,13,-192,-129,24,14,0,0,0,0,0
1776861868492370,-2020,14,-196,-130,26,15,0,0,0,0,0
1776861868494370,-2019,12,-192,-128,26,18,0,0,0,0,0
1776861868496370,-2019,12,-194,-129,25,16,0,0,0,0,0
1776861868498370,-2019,15,-200,-127,27,17,0,0,0,0,0
1776861868500370,-2019,13,-190,-128,25,15,0,0,0,0,0
1776861868502370,-2020,10,-192,-128,25,15,0,0,0,0,0
1776861868504370,-2022,13,-187,-130,25,16,0,0,0,0,0
1776866161072295,-1,-1,-1,-1,-1,-1,90,9380,6144,3320,0
1776866152749033,24,17,0,0,0,0,42,9388,4096,3064,0
1776866152814575,21,16,0,0,0,0,250,9395,4608,2808,0
1776866152749036,22,15,0,0,0,0,202,9403,5120,3576,0
1776866152814567,24,13,0,0,0,0,154,9411,5120,4088,0
1776866152814570,24,15,0,0,0,0,106,9419,5888,2808,0
1776866152749037,24,15,0,0,0,0,58,9427,5376,2296,0
1776866152749027,26,14,0,0,0,0,10,9435,5632,2296,0
1776866152814555,26,16,0,0,0,0,218,9442,6400,3064,0
1776866152880097,24,16,0,0,0,0,170,9450,6144,2040,0
1776866152814563,24,15,0,0,0,0,255,-1,-1,-1,255
1776866161072295,-1,-1,-3462,36,-2027,4,59,32767,6911,4352,0
1776861866105000,0,0,-1462,36,-2021,5,56,32767,6911,4352,0
1776861866105000,0,0,538,37,-2025,10,67,32767,6143,3840,0
1776861866105000,0,0,2538,37,-2023,2,65,32767,5887,3584,0
1776861866105000,0,0,4538,37,-2021,9,64,32767,6143,3584,0
1776861866105000,0,0,6538,37,-2024,5,74,32511,6655,3584,0
1776861866105000,0,0,8538,37,-2024,9,56,32767,6143,3584,0
1776861866105000,0,0,10538,37,-2021,11,71,-32513,6399,4096,0
1776861866105000,0,0,12538,37,-2020,14,69,-32257,6399,3840,0
1776861866105000,0,0,14538,37,-2020,11,73,32767,6655,4096,0
1776861866105000,0,0,-1,-1,-1,-1,255,-1,-1,-1,255
1776861868546370,-2021,13,-187,-127,23,17,0,0,0,0,0
1776861868548370,-2022,15,-180,-127,24,17,0,0,0,0,0
1776861868550370,-2018,8,-187,-129,25,16,0,0,0,0,0
1776861868552370,-2018,5,-189,-130,24,16,0,0,0,0,0
1776861868554370,-2021,8,-194,-128,25,14,0,0,0,0,0
1776861868556370,-2022,10,-191,-130,24,15,0,0,0,0,0
1776861868558370,-2025,8,-188,-130,23,17,0,0,0,0,0
1776861868560370,-2021,6,-187,-128,23,16,0,0,0,0,0
1776861868562370,-2023,6,-189,-128,24,16,0,0,0,0,0
1776861868564370,-2024,12,-196,-130,24,16,0,0,0,0,0
1776866161072295,-1,-1,-1,-1,-1,-1,186,9614,5888,3064,0
1776866152617964,24,17,0,0,0,0,138,9622,6656,3576,0
1776866152617968,26,17,0,0,0,0,90,9630,6144,3320,0
1776866152749030,27,15,0,0,0,0,42,9638,5632,3320,0
1776866152880101,25,15,0,0,0,0,250,9645,6144,3064,0
1776866152945650,27,14,0,0,0,0,202,9653,6144,2296,0
1776866152814572,27,14,0,0,0,0,154,9661,6656,2296,0
1776866152617967,25,16,0,0,0,0,106,9669,6912,2296,0
1776866152683497,25,17,0,0,0,0,58,9677,6144,2296,0
1776866152749033,23,19,0,0,0,0,10,9685,5632,3320,0
1776866152683499,22,18,0,0,0,0,255,-1,-1,-1,255
1776866161072295,-1,-1,-8998,37,-2024,9,77,32767,6399,3840,0
1776861866105000,0,0,-6998,37,-2016,10,68,32767,6143,3328,0
1776861866105000,0,0,-4998,37,-2021,9,63,32767,6655,3584,0
1776861866105000,0,0,-2998,37,-2027,7,65,-32257,6655,3584,0
1776861866105000,0,0,-998,37,-2026,7,66,-32257,6911,4096,0
1776861866105000,0,0,1002,38,-2026,8,69,-32513,6911,3840,0
1776861866105000,0,0,3002,38,-2021,9,74,32255,6911,3840,0
1776861866105000,0,0,5002,38,-2014,7,70,32767,6399,4096,0
1776861866105000,0,0,7002,38,-2022,9,72,-32513,6399,4096,0
1776861866105000,0,0,9002,38,-2017,5,73,-32257,6143,4608,0
1776861866105000,0,0,-1,-1,-1,-1,255,-1,-1,-1,255
1776861868606370,-2021,3,-190,-130,23,16,0,0,0,0,0
1776861868608370,-2021,9,-185,-130,23,16,0,0,0,0,0
1776861868610370,-2023,11,-198,-130,25,15,0,0,0,0,0
1776861868612370,-2022,10,-196,-130,26,15,0,0,0,0,0
1776861868614370,-2014,10,-199,-131,27,15,0,0,0,0,0
1776861868616370,-2020,11,-196,-130,27,16,0,0,0,0,0
1776861868618370,-2018,6,-199,-129,26,17,0,0,0,0,0
1776861868620370,-2019,10,-197,-128,25,19,0,0,0,0,0
1776861868622370,-2018,8,-200,-129,24,18,0,0,0,0,0
1776861868624370,-2013,10,-191,-127,23,17,0,0,0,0,0
1776866161072295,-1,-1,-1,-1,-1,-1,26,9849,7936,3320,0
1776866152749043,25,17,0,0,0,0,234,9856,6656,3576,0
1776866152749025,24,17,0,0,0,0,186,9864,6656,3320,0
1776866152814566,25,16,0,0,0,0,138,9872,7936,3064,0
1776866152749033,26,16,0,0,0,0,90,9880,7424,2552,0
1776866152683483,24,16,0,0,0,0,42,9888,7680,2808,0
1776866152749026,25,17,0,0,0,0,250,9895,8448,4088,0
1776866152749031,26,15,0,0,0,0,202,9903,7168,2552,0
1776866152749025,25,15,0,0,0,0,154,9911,5632,2040,0
1776866152749027,24,16,0,0,0,0,106,9919,6912,2040,0
1776866152814571,25,16,0,0,0,0,255,-1,-1,-1,255
1776866161072295,-1,-1,-14534,38,-2021,8,67,-32513,6911,3840,0
1776861866105000,0,0,-12534,38,-2022,7,64,32511,6911,3584,0
1776861866105000,0,0,-10534,38,-2019,7,69,32511,6143,3584,0
1776861866105000,0,0,-8534,38,-2019,8,64,32767,6399,4096,0
1776861866105000,0,0,-6534,38,-2023,8,66,32767,6911,3840,0
1776861866105000,0,0,-4534,38,-2025,12,65,-32513,6655,4352,0
1776861866105000,0,0,-2534,38,-2021,11,67,-32001,6911,4352,0
1776861866105000,0,0,-534,38,-2024,11,69,-32257,6911,4096,0
1776861866105000,0,0,1466,39,-2023,8,74,-32513,6911,3840,0
1776861866105000,0,0,3466,39,-2023,7,76,-32257,6655,3840,0
1776861866105000,0,0,-1,-1,-1,-1,255,-1,-1,-1,255
1776861868666370,-2022,15,-200,-127,25,14,0,0,0,0,0
1776861868668370,-2022,15,-194,-127,26,15,0,0,0,0,0
1776861868670370,-2028,14,-196,-129,26,16,0,0,0,0,0
1776861868672370,-2025,13,-196,-129,25,16,0,0,0,0,0
1776861868674370,-2025,13,-201,-129,23,16,0,0,0,0,0
1776861868676370,-2026,10,-195,-130,22,14,0,0,0,0,0
1776861868678370,-2026,13,-197,-129,23,16,0,0,0,0,0
1776861868680370,-2022,13,-188,-129,27,16,0,0,0,0,0
1776861868682370,-2018,6,-193,-130,29,14,0,0,0,0,0
1776861868684370,-2021,9,-186,-128,28,15,0,0,0,0,0
1776866161072295,-1,-1,-1,-1,-1,-1,122,10083,8448,3064,0
1776866152814580,24,16,0,0,0,0,74,10091,7168,3064,0
1776866152749046,25,16,0,0,0,0,26,10099,7936,1784,0
1776866152749038,25,17,0,0,0,0,234,10106,8448,1784,0
1776866152749037,26,15,0,0,0,0,186,10114,6912,2040,0
1776866152683493,26,16,0,0,0,0,138,10122,6144,3064,0
1776866152683491,26,17,0,0,0,0,90,10130,6912,2296,0
1776866152683492,26,16,0,0,0,0,42,10138,7936,2552,0
1776866152617956,23,15,0,0,0,0,250,10145,7936,2296,0
1776866152617955,25,14,0,0,0,0,202,10153,7936,1784,0
1776866152617959,28,15,0,0,0,0,255,-1,-1,-1,255
1776866161072295,-1,-1,-20070,39,-2018,12,65,32511,6655,4352,0
1776861866105000,0,0,32345,40,-2016,14,57,-32513,6143,3840,0
1776861866105000,0,0,-31191,40,-2017,12,64,-32513,6655,3840,0
1776861866105000,0,0,-29191,40,-2017,14,71,32767,6655,4352,0
1776861866105000,0,0,-27191,40,-2025,10,70,32511,7167,4096,0
1776861866105000,0,0,-25191,40,-2022,11,57,32511,7167,3840,0
1776861866105000,0,0,-23191,40,-2017,8,62,32767,6911,4096,0
1776861866105000,0,0,-21191,40,-2020,8,59,-32257,6399,4096,0
1776861866105000,0,0,-19191,40,-2017,10,64,32767,6143,4096,0
1776861866105000,0,0,-17191,40,-2013,10,76,32767,5887,3840,0
1776861866105000,0,0,-1,-1,-1,-1,255,-1,-1,-1,255
1776861868776785,-2015,13,-190,-128,25,15,0,0,0,0,0
1776861868778785,-2017,15,-185,-129,27,16,0,0,0,0,0
1776861868780785,-2019,8,-190,-128,25,18,0,0,0,0,0
1776861868782785,-2019,7,-190,-127,25,16,0,0,0,0,0
1776861868784785,-2018,6,-194,-126,22,15,0,0,0,0,0
1776861868786785,-2019,7,-184,-129,21,16,0,0,0,0,0
1776861868788785,-2020,9,-189,-129,22,18,0,0,0,0,0
1776861868790785,-2019,4,-187,-128,22,18,0,0,0,0,0
1776861868792785,-2023,7,-194,-130,23,16,0,0,0,0,0
1776861868794785,-2018,10,-192,-130,27,15,0,0,0,0,0
1776866161072295,-1,-1,-1,-1,-1,-1,201,10514,7680,2296,0
1776866152683503,28,16,0,0,0,0,153,10522,8448,4088,0
1776866152552429,27,16,0,0,0,0,105,10530,8960,3576,0
1776866152552429,27,16,0,0,0,0,57,10538,6912,3832,0
1776866152749038,26,17,0,0,0,0,9,10546,5888,4856,0
1776866152814569,24,18,0,0,0,0,217,10553,6400,3320,0
1776866152683495,25,17,0,0,0,0,169,10561,6912,2040,0
1776866152683490,24,16,0,0,0,0,121,10569,5120,1784,0
1776866152749026,23,15,0,0,0,0,73,10577,5120,1784,0
1776866152749030,25,15,0,0,0,0,25,10585,5632,3320,0
1776866152749021,24,14,0,0,0,0,255,-1,-1,-1,255
1776866161072295,-1,-1,24809,41,-2029,16,65,32767,6143,3584,0
1776861866105000,0,0,26809,41,-2032,12,63,-32513,6399,3584,0
1776861866105000,0,0,28809,41,-2024,11,51,32767,7167,3584,0
1776861866105000,0,0,30809,41,-2022,7,65,32767,7423,3584,0
1776861866105000,0,0,-32727,41,-2018,6,62,-32513,6911,3840,0
1776861866105000,0,0,-30727,41,-2024,9,55,-32513,6911,4096,0
1776861866105000,0,0,-28727,41,-2025,12,53,32767,6655,4352,0
1776861866105000,0,0,-26727,41,-2026,11,60,-32513,6911,4352,0
1776861866105000,0,0,-24727,41,-2023,12,69,-32513,6655,4352,0
1776861866105000,0,0,-22727,41,-2025,12,74,32511,6143,4096,0
1776861866105000,0,0,-1,-1,-1,-1,255,-1,-1,-1,255
1776861868836785,-2026,15,-184,-129,23,14,0,0,0,0,0
1776861868838785,-2022,10,-195,-129,24,15,0,0,0,0,0
1776861868840785,-2016,13,-196,-129,26,15,0,0,0,0,0
1776861868842785,-2022,13,-194,-130,28,15,0,0,0,0,0
1776861868844785,-2020,9,-197,-130,27,17,0,0,0,0,0
1776861868846785,-2015,15,-196,-130,26,16,0,0,0,0,0
1776861868848785,-2019,15,-201,-130,25,17,0,0,0,0,0
1776861868850785,-2015,10,-191,-130,25,16,0,0,0,0,0
1776861868852785,-2014,11,-194,-130,23,13,0,0,0,0,0
1776861868854785,-2014,12,-192,-129,22,13,0,0,0,0,0
1776866161072295,-1,-1,-1,-1,-1,-1,41,10749,7680,3320,0
1776866152683491,23,17,0,0,0,0,249,10756,9728,3064,0
1776866152749032,25,17,0,0,0,0,201,10764,8448,2040,0
1776866152617953,25,15,0,0,0,0,153,10772,7424,1784,0
1776866152683504,24,14,0,0,0,0,105,10780,7680,2040,0
1776866152683509,25,13,0,0,0,0,57,10788,9984,2296,0
1776866152814574,23,15,0,0,0,0,9,10796,7424,2552,0
1776866152814577,21,16,0,0,0,0,217,10803,8448,1784,0
1776866152683500,23,16,0,0,0,0,169,10811,5888,2552,0
1776866152749033,22,15,0,0,0,0,121,10819,5888,1272,0
1776866152749023,22,17,0,0,0,0,255,-1,-1,-1,255
1776866161072295,-1,-1,19273,42,-2028,7,67,-32257,5887,3840,0
1776861866105000,0,0,21273,42,-2024,7,60,-32513,5887,3584,0
1776861866105000,0,0,23273,42,-2028,5,65,-32513,6143,3840,0
1776861866105000,0,0,25273,42,-2030,9,70,-32257,6399,3840,0
1776861866105000,0,0,27273,42,-2029,11,61,-32513,5887,4096,0
1776861866105000,0,0,29273,42,-2026,8,59,32767,5631,3840,0
1776861866105000,0,0,31273,42,-2026,12,64,32511,6399,3840,0
1776861866105000,0,0,-32263,42,-2022,10,67,32511,7167,4096,0
1776861866105000,0,0,-30263,42,-2023,12,70,32767,7167,3840,0
1776861866105000,0,0,-28263,42,-2024,17,73,-32513,7167,3840,0
1776861866105000,0,0,-1,-1,-1,-1,255,-1,-1,-1,255
1776861868896785,-2026,10,-183,-129,27,16,0,0,0,0,0
1776861868898785,-2025,10,-186,-128,25,15,0,0,0,0,0
1776861868900785,-2027,15,-200,-128,25,16,0,0,0,0,0
1776861868902785,-2026,9,-197,-128,26,16,0,0,0,0,0
1776861868904785,-2018,11,-200,-127,26,15,0,0,0,0,0
1776861868906785,-2020,7,-196,-128,25,15,0,0,0,0,0
1776861868908785,-2022,4,-196,-128,27,15,0,0,0,0,0
1776861868910785,-2023,8,-193,-128,24,15,0,0,0,0,0
1776861868912785,-2024,9,-194,-128,24,16,0,0,0,0,0
1776861868914785,-2021,9,-191,-127,25,16,0,0,0,0,0
1776866161072295,-1,-1,-1,-1,-1,-1,137,10983,6912,1272,0
1776866152814568,26,17,0,0,0,0,89,10991,7680,2552,0
1776866152814565,25,18,0,0,0,0,41,10999,6912,1272,0
1776866152945639,23,17,0,0,0,0,249,11006,6656,1784,0
1776866153011173,24,15,0,0,0,0,201,11014,6656,1528,0
1776866152880106,23,16,0,0,0,0,153,11022,7936,2040,0
1776866152749036,23,17,0,0,0,0,105,11030,8704,4344,0
1776866152749041,24,17,0,0,0,0,57,11038,8192,4600,0
1776866152617967,23,16,0,0,0,0,9,11046,7424,3832,0
1776866152552429,23,18,0,0,0,0,217,11053,7424,3832,0
1776866152552422,23,18,0,0,0,0,255,-1,-1,-1,255
1776866161072295,-1,-1,13737,43,-2016,11,62,32255,6399,3840,0
1776861866105000,0,0,15737,43,-2014,10,58,32511,6399,3584,0
1776861866105000,0,0,17737,43,-2015,8,69,32767,6655,3840,0
1776861866105000,0,0,19737,43,-2018,15,58,32767,6655,3840,0
1776861866105000,0,0,21737,43,-2024,12,65,32511,6655,3840,0
1776861866105000,0,0,23737,43,-2027,9,67,31743,6655,4096,0
1776861866105000,0,0,25737,43,-2024,8,69,32511,6143,3840,0
1776861866105000,0,0,27737,43,-2021,7,77,32511,5887,3840,0
1776861866105000,0,0,29737,43,-2025,12,65,32255,5887,3840,0
1776861866105000,0,0,31737,43,-2029,12,55,32255,6399,3584,0
1776861866105000,0,0,-1,-1,-1,-1,255,-1,-1,-1,255
1776861868956785,-2029,11,-202,-129,23,14,0,0,0,0,0
1776861868958785,-2027,8,-195,-128,24,15,0,0,0,0,0
1776861868960785,-2021,1,-192,-128,26,15,0,0,0,0,0
1776861868962785,-2027,-1,-189,-128,25,15,0,0,0,0,0
1776861868964785,-2022,5,-187,-128,26,14,0,0,0,0,0
1776861868966785,-2027,6,-193,-128,25,15,0,0,0,0,0
1776861868968785,-2029,10,-197,-127,25,15,0,0,0,0,0
1776861868970785,-2029,11,-190,-128,25,16,0,0,0,0,0
1776861868972785,-2033,10,-192,-129,28,17,0,0,0,0,0
1776861868974785,-2028,11,-192,-128,27,17,0,0,0,0,0
1776866161072295,-1,-1,-1,-1,-1,-1,233,11217,7424,2552,0
1776866152749033,25,16,0,0,0,0,185,11225,5632,4088,0
1776866152617962,24,16,0,0,0,0,137,11233,6656,3576,0
1776866152683499,27,16,0,0,0,0,89,11241,7680,2808,0
1776866152749035,28,15,0,0,0,0,41,11249,8448,4600,0
1776866152749042,29,16,0,0,0,0,249,11256,8960,3064,0
1776866152749039,29,17,0,0,0,0,201,11264,7936,1528,0
1776866152749045,23,15,0,0,0,0,153,11272,7424,3320,0
1776866152749042,24,16,0,0,0,0,105,11280,6912,3576,0
1776866152814571,27,16,0,0,0,0,57,11288,6912,3576,0
1776866152749039,27,17,0,0,0,0,255,-1,-1,-1,255
1776866161072295,-1,-1,8201,44,-2019,12,73,32255,7167,4608,0
1776861866105000,0,0,10201,44,-2020,14,72,32511,6911,4096,0
1776861866105000,0,0,12201,44,-2017,14,58,32511,6655,4352,0
1776861866105000,0,0,14201,44,-2017,12,60,31999,6655,4096,0
1776861866105000,0,0,16201,44,-2022,16,70,32511,6655,4352,0
1776861866105000,0,0,18201,44,-2017,11,51,-32001,6399,3840,0
1776861866105000,0,0,20201,44,-2019,7,52,-32513,6143,3584,0
1776861866105000,0,0,22201,44,-2017,7,68,-32513,6143,3584,0
1776861866105000,0,0,24201,44,-2021,15,68,-32513,6399,4096,0
1776861866105000,0,0,26201,44,-2023,18,64,-32513,6399,4864,0
1776861866105000,0,0,-1,-1,-1,-1,255,-1,-1,-1,255
1776861869016785,-2021,13,-188,-129,24,18,0,0,0,0,0
1776861869018785,-2015,9,-191,-130,23,17,0,0,0,0,0
1776861869020785,-2024,9,-190,-129,21,17,0,0,0,0,0
1776861869022785,-2027,8,-197,-127,22,17,0,0,0,0,0
1776861869024785,-2025,8,-197,-128,24,17,0,0,0,0,0
1776861869026785,-2023,3,-197,-129,25,17,0,0,0,0,0
1776861869028785,-2025,9,-187,-129,25,17,0,0,0,0,0
1776861869030785,-2022,15,-197,-129,25,17,0,0,0,0,0
1776861869032785,-2025,16,-187,-128,22,17,0,0,0,0,0
1776861869034785,-2025,10,-190,-127,21,17,0,0,0,0,0
1776866161072295,-1,-1,-1,-1,-1,-1,73,11452,4608,2040,0
1776866152814567,23,15,0,0,0,0,25,11460,4864,1528,0
1776866152683495,26,16,0,0,0,0,233,11467,4608,2808,0
1776866152683503,23,16,0,0,0,0,185,11475,5376,3832,0
1776866152683493,21,17,0,0,0,0,137,11483,5376,2040,0
1776866152749025,24,16,0,0,0,0,89,11491,4864,2808,0
1776866152814558,27,16,0,0,0,0,41,11499,6912,2808,0
1776866152880102,26,16,0,0,0,0,249,11506,6912,1528,0
1776866152814572,25,16,0,0,0,0,201,11514,5888,3576,0
1776866152683496,26,17,0,0,0,0,153,11522,6400,3320,0
1776866152749029,26,18,0,0,0,0,255,-1,-1,-1,255
1776866161072295,-1,-1,2665,45,-2024,10,56,32767,7167,4352,0
1776861866105000,0,0,4665,45,-2019,7,64,32767,6911,4096,0
1776861866105000,0,0,6665,45,-2023,11,64,32767,6655,3840,0
1776861866105000,0,0,8665,45,-2020,9,65,32511,6911,3840,0
1776861866105000,0,0,10665,45,-2021,13,53,32511,6911,4352,0
1776861866105000,0,0,12665,45,-2022,15,67,-32513,6911,4608,0
1776861866105000,0,0,14665,45,-2022,11,66,-32513,6911,4352,0
1776861866105000,0,0,16665,45,-2018,16,68,-32257,6655,3584,0
1776861866105000,0,0,18665,45,-2014,9,70,-32513,7167,3840,0
1776861866105000,0,0,20665,45,-2017,8,70,32767,6655,4096,0
1776861866105000,0,0,-1,-1,-1,-1,255,-1,-1,-1,255
1776861869076785,-2019,10,-189,-128,24,17,0,0,0,0,0
1776861869129306,-2026,10,-195,-129,24,15,0,0,0,0,0
1776861869131306,-2022,8,-190,-129,25,15,0,0,0,0,0
1776861869133306,-2019,11,-189,-128,23,16,0,0,0,0,0
1776861869135306,-2021,12,-195,-129,24,16,0,0,0,0,0
1776861869137306,-2024,14,-197,-128,26,16,0,0,0,0,0
1776861869139306,-2023,11,-194,-127,27,17,0,0,0,0,0
1776861869141306,-2018,10,-188,-128,27,16,0,0,0,0,0
1776861869143306,-2018,11,-186,-128,28,15,0,0,0,0,0
1776861869145306,-2014,10,-185,-126,26,15,0,0,0,0,0
1776866161072295,-1,-1,-1,-1,-1,-1,2,11884,9472,2552,0
1776866152617959,26,17,0,0,0,0,210,11891,7680,2552,0
1776866152617956,24,17,0,0,0,0,162,11899,6912,3064,0
1776866152617956,26,16,0,0,0,0,114,11907,7680,3320,0
1776866152683493,26,14,0,0,0,0,66,11915,6656,1528,0
1776866152617954,23,14,0,0,0,0,18,11923,8448,2552,0
1776866152486887,24,16,0,0,0,0,226,11930,8704,3320,0
1776866152749033,24,15,0,0,0,0,178,11938,7424,3320,0
1776866152749036,24,15,0,0,0,0,130,11946,7424,3320,0
1776866152617959,24,18,0,0,0,0,82,11954,6912,3576,0
1776866152617959,24,16,0,0,0,0,255,-1,-1,-1,255
1776866161072295,-1,-1,-17886,46,-2020,10,66,32511,6655,4096,0
1776861866105000,0,0,-15886,46,-2024,9,60,32767,6911,4352,0
1776861866105000,0,0,-13886,46,-2023,6,61,32511,6655,4352,0
1776861866105000,0,0,-11886,46,-2020,11,69,32767,6655,3840,0
1776861866105000,0,0,-9886,46,-2019,10,62,-32513,6143,4096,0
1776861866105000,0,0,-7886,46,-2024,15,56,32767,6143,4352,0
1776861866105000,0,0,-5886,46,-2026,13,59,32767,6655,4096,0
1776861866105000,0,0,-3886,46,-2023,7,62,-32257,6399,4096,0
1776861866105000,0,0,-1886,46,-2027,7,64,-32513,6143,4096,0
1776861866105000,0,0,114,47,-2027,14,72,-32257,5887,3840,0
1776861866105000,0,0,-1,-1,-1,-1,255,-1,-1,-1,255
1776861869187306,-2026,13,-196,-128,22,15,0,0,0,0,0
1776861869189306,-2030,10,-191,-128,25,17,0,0,0,0,0
1776861869191306,-2022,11,-191,-127,28,17,0,0,0,0,0
1776861869193306,-2020,7,-187,-129,29,18,0,0,0,0,0
1776861869195306,-2027,10,-186,-128,26,17,0,0,0,0,0
1776861869197306,-2023,11,-188,-127,26,17,0,0,0,0,0
1776861869199306,-2022,11,-177,-128,27,15,0,0,0,0,0
1776861869201306,-2024,14,-190,-127,27,16,0,0,0,0,0
1776861869203306,-2025,9,-198,-127,26,16,0,0,0,0,0
1776861869205306,-2025,10,-199,-129,26,14,0,0,0,0,0
1776866161072295,-1,-1,-1,-1,-1,-1,98,12118,5888,2552,0
1776866152749043,28,15,0,0,0,0,50,12126,5888,3832,0
1776866152814573,26,16,0,0,0,0,2,12134,6912,1784,0
1776866152683500,25,16,0,0,0,0,210,12141,7680,2808,0
1776866152749028,26,17,0,0,0,0,162,12149,7424,2552,0
1776866152749037,26,17,0,0,0,0,114,12157,6400,3320,0
1776866152814576,27,17,0,0,0,0,66,12165,6912,3320,0
1776866152749041,25,18,0,0,0,0,18,12173,7424,3576,0
1776866152749034,24,18,0,0,0,0,226,12180,8704,2808,0
1776866152749032,25,17,0,0,0,0,178,12188,8448,2296,0
1776866152749031,24,17,0,0,0,0,255,-1,-1,-1,255
1776866161072295,-1,-1,-23422,47,-2021,7,64,-32001,6399,4352,0
1776861866105000,0,0,-21422,47,-2019,7,64,-32257,6143,3840,0
1776861866105000,0,0,-19422,47,-2020,11,60,-32513,6655,4096,0
1776861866105000,0,0,-17422,47,-2021,15,52,32767,6655,4096,0
1776861866105000,0,0,-15422,47,-2025,11,63,32767,6911,4352,0
1776861866105000,0,0,-13422,47,-2020,10,66,32767,7167,4864,0
1776861866105000,0,0,-11422,47,-2023,12,61,32767,6911,4608,0
1776861866105000,0,0,-9422,47,-2023,11,55,-32513,7167,4352,0
1776861866105000,0,0,-7422,47,-2025,13,51,-32513,6655,3840,0
1776861866105000,0,0,-5422,47,-2026,13,61,-32257,6399,3840,0
1776861866105000,0,0,-1,-1,-1,-1,255,-1,-1,-1,255
1776861869247306,-2020,13,-195,-127,25,17,0,0,0,0,0
1776861869249306,-2022,13,-188,-129,25,15,0,0,0,0,0
1776861869251306,-2025,14,-186,-129,28,16,0,0,0,0,0
1776861869253306,-2024,13,-193,-130,27,16,0,0,0,0,0
1776861869255306,-2027,14,-186,-128,26,15,0,0,0,0,0
1776861869257306,-2027,14,-195,-127,26,17,0,0,0,0,0
1776861869259306,-2027,10,-189,-127,25,17,0,0,0,0,0
1776861869261306,-2029,13,-186,-127,26,16,0,0,0,0,0
1776861869263306,-2032,9,-194,-128,26,16,0,0,0,0,0
1776861869265306,-2027,7,-192,-127,24,16,0,0,0,0,0
1776866161072295,-1,-1,-1,-1,-1,-1,194,12352,5632,3064,0
1776866152617956,28,17,0,0,0,0,146,12360,5120,3064,0
1776866152683498,24,17,0,0,0,0,98,12368,7424,2552,0
1776866152683502,25,16,0,0,0,0,50,12376,7424,2552,0
1776866152683499,25,16,0,0,0,0,2,12384,5888,3320,0
1776866152683500,24,16,0,0,0,0,210,12391,6144,2552,0
1776866152617957,25,16,0,0,0,0,162,12399,7424,1528,0
1776866152486885,26,14,0,0,0,0,114,12407,6144,1528,0
1776866152617957,29,17,0,0,0,0,66,12415,6912,1784,0
1776866152814569,28,17,0,0,0,0,18,12423,7680,2808,0
1776866152814566,27,16,0,0,0,0,255,-1,-1,-1,255
1776866161072295,-1,-1,-28958,48,-2021,17,63,-32257,7167,4096,0
1776861866105000,0,0,-26958,48,-2023,13,70,-32257,6655,4096,0
1776861866105000,0,0,-24958,48,-2026,12,62,-32513,6911,4096,0
1776861866105000,0,0,-22958,48,-2025,7,57,-32513,6399,4096,0
1776861866105000,0,0,-20958,48,-2019,12,64,32767,6399,3840,0
1776861866105000,0,0,-18958,48,-2020,15,60,32767,6143,4352,0
1776861866105000,0,0,-16958,48,-2023,14,62,-32513,6399,4352,0
1776861866105000,0,0,-14958,48,-2023,14,73,-32513,7167,3840,0
1776861866105000,0,0,-12958,48,-2022,10,65,32767,7423,4096,0
1776861866105000,0,0,-10958,48,-2016,7,59,-32513,7423,4352,0
1776861866105000,0,0,-1,-1,-1,-1,255,-1,-1,-1,255
1776861869307306,-2016,15,-197,-127,25,15,0,0,0,0,0
1776861869309306,-2016,12,-191,-129,23,14,0,0,0,0,0
1776861869311306,-2021,15,-190,-129,23,14,0,0,0,0,0
1776861869313306,-2022,13,-187,-128,21,16,0,0,0,0,0
1776861869315306,-2019,10,-194,-128,21,17,0,0,0,0,0
1776861869317306,-2027,7,-199,-130,26,17,0,0,0,0,0
1776861869319306,-2023,6,-192,-129,25,17,0,0,0,0,0
1776861869321306,-2026,9,-188,-127,23,16,0,0,0,0,0
1776861869323306,-2028,11,-188,-128,23,15,0,0,0,0,0
1776861869325306,-2028,9,-192,-127,25,14,0,0,0,0,0
1776866161072295,-1,-1,-1,-1,-1,-1,34,12587,7680,2552,0
1776866152880104,26,15,0,0,0,0,242,12594,7424,3320,0
1776866152814568,28,16,0,0,0,0,194,12602,6400,3576,0
1776866152749034,26,16,0,0,0,0,146,12610,5632,2552,0
1776866152814566,24,14,0,0,0,0,98,12618,5376,1528,0
1776866152617964,25,16,0,0,0,0,50,12626,5632,760,0
1776866152683505,24,17,0,0,0,0,2,12634,6656,2040,0
1776866152683509,23,17,0,0,0,0,210,12641,5632,2296,0
1776866152749032,21,16,0,0,0,0,162,12649,6656,2040,0
1776866152617950,24,16,0,0,0,0,114,12657,6656,2808,0
1776866152749037,26,16,0,0,0,0,255,-1,-1,-1,255
1776866161072295,-1,-1,31042,49,-2024,13,65,32767,7167,3840,0
1776861866105000,0,0,-32494,49,-2024,8,68,32255,6911,3584,0
1776861866105000,0,0,-30494,49,-2019,9,68,32255,6655,3584,0
1776861866105000,0,0,-28494,49,-2024,4,73,32511,6911,3840,0
1776861866105000,0,0,-26494,49,-2025,7,72,32511,7167,3840,0
1776861866105000,0,0,-24494,49,-2021,6,61,32767,7167,3840,0
1776861866105000,0,0,-22494,49,-2021,14,67,32767,6911,3840,0
1776861866105000,0,0,-20494,49,-2021,12,68,-32513,6655,3840,0
1776861866105000,0,0,-18494,49,-2024,12,67,32767,6399,4352,0
1776861866105000,0,0,-16494,49,-2027,12,69,32767,5887,4608,0
1776861866105000,0,0,-1,-1,-1,-1,255,-1,-1,-1,255
1776861869367306,-2027,10,-200,-129,22,17,0,0,0,0,0
1776861869369306,-2024,10,-201,-130,22,16,0,0,0,0,0
1776861869371306,-2024,13,-197,-131,23,16,0,0,0,0,0
1776861869373306,-2026,8,-193,-130,26,15,0,0,0,0,0
1776861869375306,-2019,3,-192,-129,27,17,0,0,0,0,0
1776861869377306,-2016,10,-192,-127,27,18,0,0,0,0,0
1776861869379306,-2018,4,-195,-128,27,18,0,0,0,0,0
1776861869381306,-2021,9,-193,-130,25,17,0,0,0,0,0
1776861869383306,-2023,10,-196,-129,23,18,0,0,0,0,0
1776861869385306,-2021,13,-183,-128,25,17,0,0,0,0,0
1776866161072295,-1,-1,-1,-1,-1,-1,130,12821,7936,3832,0
1776866152683489,24,16,0,0,0,0,82,12829,7936,2296,0
1776866152683497,26,16,0,0,0,0,34,12837,7424,3064,0
1776866152749044,26,16,0,0,0,0,242,12844,6400,2040,0
1776866152683502,25,16,0,0,0,0,194,12852,6656,2552,0
1776866152617959,24,17,0,0,0,0,146,12860,5888,2808,0
1776866152749028,25,17,0,0,0,0,98,12868,5888,4600,0
1776866152749027,26,17,0,0,0,0,50,12876,6144,3832,0
1776866152683502,26,16,0,0,0,0,2,12884,7680,2552,0
1776866152749038,24,14,0,0,0,0,210,12891,7680,2296,0
1776866152683506,23,15,0,0,0,0,255,-1,-1,-1,255
1776866161072295,-1,-1,25506,50,-2026,3,64,-32513,6143,4096,0
1776861866105000,0,0,27506,50,-2025,11,66,-32513,6655,3840,0
1776861866105000,0,0,29506,50,-2028,13,64,32767,6655,4096,0
1776861866105000,0,0,31506,50,-2026,12,61,32767,6655,4096,0
1776861866105000,0,0,-32030,50,-2027,5,65,32511,6655,4352,0
1776861866105000,0,0,-30030,50,-2021,8,68,32511,6399,4608,0
1776861866105000,0,0,-28030,50,-2023,8,66,-32513,5887,4096,0
1776861866105000,0,0,-26030,50,-2027,10,64,-32513,6655,3840,0
1776861866105000,0,0,-24030,50,-2024,10,73,-32513,6911,3840,0
1776861866105000,0,0,-22030,50,-2023,8,65,32767,6911,4096,0
1776861866105000,0,0,-1,-1,-1,-1,255,-1,-1,-1,255
1776861869427306,-2025,7,-181,-128,27,18,0,0,0,0,0
1776861869429306,-2022,6,-184,-129,26,17,0,0,0,0,0
1776861869431306,-2018,3,-195,-128,26,16,0,0,0,0,0
1776861869433306,-2018,15,-198,-126,26,17,0,0,0,0,0
1776861869435306,-2019,9,-187,-127,27,18,0,0,0,0,0
1776861869437306,-2020,4,-183,-127,27,19,0,0,0,0,0
1776861869439306,-2023,5,-183,-127,29,18,0,0,0,0,0
1776861869441306,-2026,8,-185,-127,30,17,0,0,0,0,0
1776861869443306,-2018,9,-183,-127,29,15,0,0,0,0,0
1776861869445306,-2018,8,-190,-127,28,16,0,0,0,0,0
1776866161072295,-1,-1,-1,-1,-1,-1,226,13055,8192,2808,0
1776866152683489,26,16,0,0,0,0,118,13261,6400,3576,0
1776866152749030,28,16,0,0,0,0,70,13269,4608,3320,0
1776866152814577,26,16,0,0,0,0,23,13277,5120,2552,0
1776866152749046,25,14,0,0,0,0,231,13284,5120,2040,0
1776866152749042,25,16,0,0,0,0,183,13292,5888,1016,0
1776866152814573,27,18,0,0,0,0,135,13300,5376,2296,0
1776866152749038,28,18,0,0,0,0,87,13308,5376,3320,0
1776866152683495,26,18,0,0,0,0,39,13316,6144,1528,0
1776866152617958,27,18,0,0,0,0,247,13323,6656,2040,0
1776866152814568,26,16,0,0,0,0,255,-1,-1,-1,255
1776866161072295,-1,-1,5063,52,-2019,7,77,-32001,6399,4096,0
1776861866105000,0,0,7063,52,-2020,12,70,-32257,6655,4096,0
1776861866105000,0,0,9063,52,-2025,11,66,-32513,6399,3840,0
1776861866105000,0,0,11063,52,-2024,12,63,-32513,6143,4096,0
1776861866105000,0,0,13063,52,-2025,17,66,-32513,6399,4608,0
1776861866105000,0,0,15063,52,-2023,14,58,-32513,7167,4096,0
1776861866105000,0,0,17063,52,-2021,11,58,-32513,7167,4096,0
1776861866105000,0,0,19063,52,-2027,5,56,-32513,6655,3840,0
1776861866105000,0,0,21063,52,-2025,6,65,-32257,6655,4096,0
1776861866105000,0,0,23063,52,-2021,10,53,32511,6911,4096,0
1776861866105000,0,0,-1,-1,-1,-1,255,-1,-1,-1,255
1776861869537935,-2020,14,-193,-131,24,15,0,0,0,0,0
1776861869539936,-2019,17,-186,-128,24,15,0,0,0,0,0
1776861869541936,-2021,9,-186,-129,23,16,0,0,0,0,0
1776861869543936,-2021,8,-185,-129,25,13,0,0,0,0,0
1776861869545936,-2028,7,-191,-129,24,14,0,0,0,0,0
1776861869547934,-2031,10,-192,-127,26,15,0,0,0,0,0
1776861869549934,-2028,5,-187,-128,26,15,0,0,0,0,0
1776861869551934,-2026,7,-188,-128,22,14,0,0,0,0,0
1776861869553934,-2028,3,-199,-126,24,15,0,0,0,0,0
1776861869555935,-2029,-1,-204,-128,23,16,0,0,0,0,0
1776866161072295,-1,-1,-1,-1,-1,-1,7,13488,6912,1784,0
1776866152683493,23,16,0,0,0,0,215,13495,6400,2296,0
1776866152683494,25,17,0,0,0,0,167,13503,5120,2040,0
1776866152552417,27,15,0,0,0,0,119,13511,4864,3064,0
1776866152683494,27,14,0,0,0,0,71,13519,5376,3832,0
1776866152683494,24,16,0,0,0,0,23,13527,6144,3576,0
1776866152683492,24,17,0,0,0,0,231,13534,5632,3576,0
1776866152683486,25,17,0,0,0,0,183,13542,6144,3320,0
1776866152683499,24,18,0,0,0,0,135,13550,5376,2808,0
1776866152683501,25,17,0,0,0,0,87,13558,6144,3320,0
1776866152814576,25,16,0,0,0,0,255,-1,-1,-1,255
1776866161072295,-1,-1,-473,52,-2021,14,66,-32257,6399,3840,0
1776861866105000,0,0,1527,53,-2024,13,66,-32513,6911,3584,0
1776861866105000,0,0,3527,53,-2024,9,65,-32513,7167,3840,0
1776861866105000,0,0,5527,53,-2018,10,63,-32257,6911,4096,0
1776861866105000,0,0,7527,53,-2020,5,65,-32513,7423,3840,0
1776861866105000,0,0,9527,53,-2021,10,72,32767,7423,4352,0
1776861866105000,0,0,11527,53,-2021,11,69,32511,7167,4608,0
1776861866105000,0,0,13527,53,-2021,13,63,32511,6655,4352,0
1776861866105000,0,0,15527,53,-2020,12,67,-32513,6143,4096,0
1776861866105000,0,0,17527,53,-2020,14,64,-32513,6399,4096,0
1776861866105000,0,0,-1,-1,-1,-1,255,-1,-1,-1,255
1776861869597935,-2018,7,-202,-129,27,16,0,0,0,0,0
1776861869599935,-2018,8,-193,-129,25,15,0,0,0,0,0
1776861869601935,-2020,12,-193,-129,23,16,0,0,0,0,0
1776861869603935,-2020,13,-184,-127,23,19,0,0,0,0,0
1776861869605935,-2021,8,-180,-129,24,18,0,0,0,0,0
1776861869607935,-2019,8,-189,-130,25,18,0,0,0,0,0
1776861869609935,-2020,9,-193,-130,26,17,0,0,0,0,0
1776861869611935,-2019,5,-202,-128,26,15,0,0,0,0,0
1776861869613935,-2017,4,-196,-129,24,15,0,0,0,0,0
1776861869615935,-2025,7,-198,-127,24,15,0,0,0,0,0
1776866161072295,-1,-1,-1,-1,-1,-1,103,13722,6912,2552,0
1776866152814567,24,15,0,0,0,0,55,13730,6912,2808,0
1776866152749037,24,15,0,0,0,0,7,13738,6912,3064,0
1776866152749036,24,16,0,0,0,0,215,13745,6144,2808,0
1776866152814570,23,18,0,0,0,0,167,13753,7168,1272,0
1776866152814574,24,17,0,0,0,0,119,13761,7680,2040,0
1776866152749024,25,16,0,0,0,0,71,13769,7680,3320,0
1776866152749028,24,17,0,0,0,0,23,13777,6912,3064,0
1776866152814562,24,16,0,0,0,0,231,13784,6656,2808,0
1776866152749019,25,16,0,0,0,0,183,13792,6912,4088,0
1776866152617945,25,15,0,0,0,0,255,-1,-1,-1,255
1776866161072295,-1,-1,-6009,53,-2018,17,56,32511,6911,4096,0
1776861866105000,0,0,-4009,53,-2022,12,58,32767,6655,4352,0
1776861866105000,0,0,-2009,53,-2027,11,51,32767,6143,4096,0
1776861866105000,0,0,-9,53,-2028,15,62,-32513,6655,3840,0
1776861866105000,0,0,1991,54,-2023,14,69,-32513,6911,3840,0
1776861866105000,0,0,3991,54,-2023,12,72,-32513,6911,3840,0
1776861866105000,0,0,5991,54,-2027,15,65,32767,6655,4096,0
1776861866105000,0,0,7991,54,-2026,13,69,32767,7167,4096,0
1776861866105000,0,0,9991,54,-2022,8,63,32767,7935,3584,0
1776861866105000,0,0,11991,54,-2025,11,56,32511,7423,3840,0
1776861866105000,0,0,-1,-1,-1,-1,255,-1,-1,-1,255
1776861869657935,-2019,11,-195,-128,24,15,0,0,0,0,0
1776861869659935,-2017,7,-187,-126,25,16,0,0,0,0,0
1776861869661935,-2026,6,-182,-127,24,16,0,0,0,0,0
1776861869663935,-2023,6,-184,-128,25,17,0,0,0,0,0
1776861869665935,-2022,7,-183,-130,23,16,0,0,0,0,0
1776861869667935,-2023,7,-193,-129,23,15,0,0,0,0,0
1776861869669935,-2025,7,-186,-129,25,14,0,0,0,0,0
1776861869671935,-2024,14,-199,-129,27,15,0,0,0,0,0
1776861869673935,-2017,10,-203,-130,29,17,0,0,0,0,0
1776861869675935,-2019,8,-194,-128,27,18,0,0,0,0,0
1776866161072295,-1,-1,-1,-1,-1,-1,199,13956,7936,3576,0
1776866152814568,25,17,0,0,0,0,151,13964,5632,3064,0
1776866152749035,24,17,0,0,0,0,103,13972,4864,1784,0
1776866152749045,24,16,0,0,0,0,55,13980,7168,1272,0
1776866152749034,24,17,0,0,0,0,7,13988,7680,1784,0
1776866152749028,22,17,0,0,0,0,215,13995,6656,2296,0
1776866152814572,22,16,0,0,0,0,167,14003,6912,2552,0
1776866152814567,23,16,0,0,0,0,119,14011,6656,2808,0
1776866152880105,25,16,0,0,0,0,71,14019,7168,3320,0
1776866152749029,26,16,0,0,0,0,23,14027,7168,3832,0
1776866152814564,25,13,0,0,0,0,255,-1,-1,-1,255
1776866161072295,-1,-1,-11545,54,-2022,11,64,32511,6399,3072,0
1776861866105000,0,0,-9545,54,-2024,10,63,-32513,6655,3584,0
1776861866105000,0,0,-7545,54,-2020,13,59,-32513,6399,3584,0
1776861866105000,0,0,-5545,54,-2024,9,65,-32513,6143,3584,0
1776861866105000,0,0,-3545,54,-2026,16,76,-32513,6143,3840,0
1776861866105000,0,0,-1545,54,-2025,10,79,-32513,5887,3840,0
1776861866105000,0,0,455,55,-2022,8,74,32767,5887,3840,0
1776861866105000,0,0,2455,55,-2023,4,73,-32513,6655,3840,0
1776861866105000,0,0,4455,55,-2017,2,76,32511,6655,3840,0
1776861866105000,0,0,6455,55,-2017,7,66,-32513,6655,3584,0
1776861866105000,0,0,-1,-1,-1,-1,255,-1,-1,-1,255
1776861869717935,-2017,8,-193,-127,25,15,0,0,0,0,0
1776861869719935,-2023,7,-188,-129,27,15,0,0,0,0,0
1776861869721935,-2024,11,-189,-128,28,13,0,0,0,0,0
1776861869723935,-2021,6,-186,-128,28,14,0,0,0,0,0
1776861869725935,-2020,10,-189,-128,28,13,0,0,0,0,0
1776861869727935,-2019,9,-189,-127,27,14,0,0,0,0,0
1776861869729935,-2020,3,-192,-127,25,15,0,0,0,0,0
1776861869731935,-2025,8,-194,-127,25,15,0,0,0,0,0
1776861869733935,-2019,10,-196,-127,24,13,0,0,0,0,0
1776861869735935,-2017,8,-194,-128,24,15,0,0,0,0,0
1776866161072295,-1,-1,-1,-1,-1,-1,39,14191,7936,1528,0
1776866152683497,22,15,0,0,0,0,248,14198,8448,2296,0
1776866152683497,23,15,0,0,0,0,200,14206,6912,2552,0
1776866152486884,27,16,0,0,0,0,152,14214,7936,3320,0
1776866152486897,28,16,0,0,0,0,104,14222,8448,3832,0
1776866152683503,26,15,0,0,0,0,56,14230,7168,3576,0
1776866152749029,26,16,0,0,0,0,8,14238,8704,4088,0
1776866152683493,26,17,0,0,0,0,216,14245,7680,2808,0
1776866152552426,24,17,0,0,0,0,168,14253,5888,2808,0
1776866152749031,23,17,0,0,0,0,120,14261,5120,2808,0
1776866152814565,26,16,0,0,0,0,255,-1,-1,-1,255
1776866161072295,-1,-1,-17080,55,-2024,7,61,-32513,6655,4096,0
1776861866105000,0,0,-15080,55,-2018,6,75,-32513,6399,4096,0
1776861866105000,0,0,-13080,55,-2020,8,65,-32257,6399,3840,0
1776861866105000,0,0,-11080,55,-2020,10,69,-32257,5887,4352,0
1776861866105000,0,0,-9080,55,-2023,7,70,32767,5887,4096,0
1776861866105000,0,0,-7080,55,-2023,12,68,32511,5631,3840,0
1776861866105000,0,0,-5080,55,-2022,13,67,-32513,5887,3328,0
1776861866105000,0,0,-3080,55,-2024,11,70,-32513,6655,3584,0
1776861866105000,0,0,-1080,55,-2024,12,64,32767,6399,4096,0
1776861866105000,0,0,920,56,-2023,11,57,32511,6655,3840,0
1776861866105000,0,0,-1,-1,-1,-1,255,-1,-1,-1,255
1776861869777936,-2016,12,-189,-128,23,16,0,0,0,0,0
1776861869779937,-2018,11,-184,-127,24,17,0,0,0,0,0
1776861869781934,-2025,10,-185,-127,26,16,0,0,0,0,0
1776861869783934,-2022,12,-193,-128,25,15,0,0,0,0,0
1776861869785934,-2024,13,-194,-129,25,16,0,0,0,0,0
1776861869787934,-2022,12,-194,-130,26,15,0,0,0,0,0
1776861869789934,-2024,7,-188,-129,28,15,0,0,0,0,0
1776861869791934,-2022,7,-191,-127,29,14,0,0,0,0,0
1776861869793935,-2023,17,-186,-127,29,15,0,0,0,0,0
1776861869795935,-2019,16,-181,-127,29,16,0,0,0,0,0
1776866161072295,-1,-1,-1,-1,-1,-1,135,14425,8192,3576,0
1776866152814574,28,15,0,0,0,0,88,14433,6400,2040,0
1776866152683508,25,13,0,0,0,0,40,14441,6656,2296,0
1776866152749038,24,14,0,0,0,0,248,14448,6144,2808,0
1776866152683500,25,16,0,0,0,0,200,14456,5120,4088,0
1776866152749039,25,16,0,0,0,0,152,14464,6144,2808,0
1776866152749043,24,16,0,0,0,0,104,14472,7424,3832,0
1776866152749028,24,16,0,0,0,0,56,14480,6144,2552,0
1776866152683494,25,17,0,0,0,0,8,14488,5376,2296,0
1776866152749036,24,16,0,0,0,0,216,14495,7424,2040,0
1776866152814566,25,17,0,0,0,0,255,-1,-1,-1,255
1776866161072295,-1,-1,-22616,56,-2021,9,62,-32513,6655,4096,0
1776861866105000,0,0,30118,57,-2020,12,56,-32001,6143,4096,0
1776861866105000,0,0,32118,57,-2022,14,58,32767,6399,4096,0
1776861866105000,0,0,-31417,57,-2022,7,54,32767,6911,4096,0
1776861866105000,0,0,-29417,57,-2023,10,66,-32257,6655,4352,0
1776861866105000,0,0,-27417,57,-2023,12,66,-32513,6399,4096,0
1776861866105000,0,0,-25417,57,-2030,7,70,-32257,7423,3840,0
1776861866105000,0,0,-23417,57,-2024,11,58,-32513,7423,4352,0
1776861866105000,0,0,-21417,57,-2024,6,74,-32513,7167,4352,0
1776861866105000,0,0,-19416,57,-2017,6,65,-32257,6911,4352,0
1776861866105000,0,0,-1,-1,-1,-1,255,-1,-1,-1,255
1776861869888672,-2015,11,-189,-128,27,15,0,0,0,0,0
1776861869890672,-2016,15,-197,-129,27,15,0,0,0,0,0
1776861869892672,-2018,7,-192,-128,26,16,0,0,0,0,0
1776861869894672,-2017,3,-188,-129,25,17,0,0,0,0,0
1776861869896672,-2017,6,-190,-130,22,16,0,0,0,0,0
1776861869898672,-2025,10,-185,-130,23,16,0,0,0,0,0
1776861869900672,-2020,10,-191,-129,24,16,0,0,0,0,0
1776861869902672,-2019,10,-192,-129,24,16,0,0,0,0,0
1776861869904673,-2019,10,-190,-130,22,16,0,0,0,0,0
1776861869906670,-2020,7,-191,-129,22,16,0,0,0,0,0
1776866161072295,-1,-1,-1,-1,-1,-1,22,14858,6912,2040,0
1776866152749030,25,17,0,0,0,0,230,14865,7680,2552,0
1776866152814563,25,18,0,0,0,0,182,14873,7680,2296,0
1776866152814570,25,17,0,0,0,0,134,14881,6400,1784,0
1776866152617962,24,19,0,0,0,0,86,14889,5632,2296,0
1776866152552436,25,18,0,0,0,0,38,14897,5888,3576,0
1776866152617957,26,17,0,0,0,0,246,14904,7424,2296,0
1776866152749035,25,15,0,0,0,0,198,14912,7680,1528,0
1776866152683502,25,14,0,0,0,0,150,14920,6912,1528,0
1776866152683499,23,15,0,0,0,0,103,14928,7680,2296,0
1776866152683503,23,16,0,0,0,0,255,-1,-1,-1,255
1776866161072295,-1,-1,22583,58,-2024,10,74,-32513,6655,4352,0
1776861866105000,0,0,24583,58,-2020,13,78,-32513,7167,4608,0
1776861866105000,0,0,26583,58,-2026,9,69,32255,7423,4352,0
1776861866105000,0,0,28583,58,-2027,14,61,32255,7423,4608,0
1776861866105000,0,0,30583,58,-2025,10,64,32767,6655,4608,0
1776861866105000,0,0,32583,58,-2021,10,77,32767,6399,4096,0
1776861866105000,0,0,-30953,58,-2024,6,65,-32513,6143,4352,0
1776861866105000,0,0,-28953,58,-2024,11,65,-32513,6399,4096,0
1776861866105000,0,0,-26953,58,-2022,8,65,-32513,6399,3584,0
1776861866105000,0,0,-24953,58,-2023,8,75,-32513,6911,3584,0
1776861866105000,0,0,-1,-1,-1,-1,255,-1,-1,-1,255
1776861869948671,-2027,7,-184,-128,23,14,0,0,0,0,0
1776861869950671,-2026,6,-190,-128,25,15,0,0,0,0,0
1776861869952671,-2023,11,-190,-129,30,16,0,0,0,0,0
1776861869954671,-2025,10,-208,-129,28,17,0,0,0,0,0
1776861869956671,-2026,8,-198,-129,27,16,0,0,0,0,0
1776861869958671,-2028,7,-194,-128,25,16,0,0,0,0,0
1776861869960671,-2024,9,-188,-128,25,16,0,0,0,0,0
1776861869962671,-2024,11,-197,-129,25,16,0,0,0,0,0
1776861869964671,-2025,6,-187,-129,26,15,0,0,0,0,0
1776861869966671,-2026,10,-186,-129,25,16,0,0,0,0,0
1776866161072295,-1,-1,-1,-1,-1,-1,119,15092,5120,3576,0
1776866152683505,24,18,0,0,0,0,72,15100,5888,3832,0
1776866152749042,24,17,0,0,0,0,24,15108,6656,3320,0
1776866152617968,25,15,0,0,0,0,232,15115,7424,2808,0
1776866152617957,28,16,0,0,0,0,184,15123,8960,3576,0
1776866152814567,29,19,0,0,0,0,136,15131,8704,3064,0
1776866152683496,30,18,0,0,0,0,88,15139,7424,2808,0
1776866152683492,28,16,0,0,0,0,40,15147,6400,3320,0
1776866152683494,27,16,0,0,0,0,248,15154,7168,3832,0
1776866152683493,25,17,0,0,0,0,200,15162,7424,3064,0
1776866152683502,24,18,0,0,0,0,255,-1,-1,-1,255
1776866161072295,-1,-1,17048,59,-2014,9,69,32767,6399,4352,0
1776861866105000,0,0,19048,59,-2013,9,67,32767,6399,4096,0
1776861866105000,0,0,21048,59,-2018,10,65,32767,6143,4096,0
1776861866105000,0,0,23048,59,-2024,9,66,-32257,6399,4096,0
1776861866105000,0,0,25048,59,-2019,6,61,-32513,6655,4352,0
1776861866105000,0,0,27048,59,-2018,10,56,-32257,6655,4096,0
1776861866105000,0,0,29048,59,-2019,6,56,-32001,6655,4096,0
1776861866105000,0,0,31048,59,-2022,4,64,-32257,6655,3840,0
1776861866105000,0,0,-32488,59,-2021,5,67,-32513,6655,3584,0
1776861866105000,0,0,-30488,59,-2019,9,60,-32513,6399,3584,0
1776861866105000,0,0,-1,-1,-1,-1,255,-1,-1,-1,255
1776861870008672,-2018,5,-201,-129,25,15,0,0,0,0,0
1776861870010672,-2024,8,-188,-130,24,16,0,0,0,0,0
1776861870012672,-2029,11,-187,-129,25,17,0,0,0,0,0
1776861870014672,-2022,10,-191,-130,25,18,0,0,0,0,0
1776861870016672,-2024,9,-191,-130,26,16,0,0,0,0,0
1776861870018672,-2021,14,-189,-128,25,14,0,0,0,0,0
1776861870020672,-2015,11,-181,-127,25,15,0,0,0,0,0
1776861870022672,-2023,11,-184,-128,25,14,0,0,0,0,0
1776861870024672,-2023,4,-188,-128,24,14,0,0,0,0,0
1776861870026673,-2023,4,-191,-129,26,14,0,0,0,0,0
1776866161072295,-1,-1,-1,-1,-1,-1,214,15326,7680,3064,0
1776866152749038,24,15,0,0,0,0,166,15334,7936,3064,0
1776866152814580,23,16,0,0,0,0,118,15342,8704,4600,0
1776866152814577,23,18,0,0,0,0,70,15350,7168,2552,0
1776866152749030,24,16,0,0,0,0,22,15358,5632,3576,0
1776866152749044,25,15,0,0,0,0,230,15365,6144,3576,0
1776866152683498,25,14,0,0,0,0,182,15373,6144,4088,0
1776866152749029,25,14,0,0,0,0,134,15381,5632,2296,0
1776866152749034,26,14,0,0,0,0,86,15389,7680,1528,0
1776866152683498,25,15,0,0,0,0,38,15397,6656,3064,0
1776866152683502,24,15,0,0,0,0,255,-1,-1,-1,255
1776866161072295,-1,-1,11510,60,-2021,9,66,-32513,6655,4096,0
1776861866105000,0,0,13510,60,-2021,10,69,32767,6655,4608,0
1776861866105000,0,0,15510,60,-2016,9,60,32767,6399,4608,0
1776861866105000,0,0,17510,60,-2019,7,61,32511,6399,4096,0
1776861866105000,0,0,19510,60,-2020,6,68,32511,6143,4352,0
1776861866105000,0,0,21510,60,-2021,5,63,32511,6143,4096,0
1776861866105000,0,0,23510,60,-2023,4,70,32511,5631,4352,0
1776861866105000,0,0,25510,60,-2023,8,67,32767,5887,4608,0
1776861866105000,0,0,27510,60,-2028,12,68,32511,6399,4352,0
1776861866105000,0,0,29510,60,-2025,9,65,32767,6399,4352,0
1776861866105000,0,0,-1,-1,-1,-1,255,-1,-1,-1,255
1776861870068670,-2018,10,-197,-127,23,15,0,0,0,0,0
1776861870070670,-2018,11,-199,-127,25,14,0,0,0,0,0
1776861870072670,-2019,11,-196,-129,26,14,0,0,0,0,0
1776861870074670,-2022,11,-189,-128,25,15,0,0,0,0,0
1776861870076671,-2019,13,-188,-129,23,17,0,0,0,0,0
1776861870078671,-2022,8,-186,-128,23,18,0,0,0,0,0
1776861870080671,-2023,5,-191,-128,26,18,0,0,0,0,0
1776861870082671,-2025,6,-193,-130,25,16,0,0,0,0,0
1776861870084671,-2022,7,-199,-128,24,16,0,0,0,0,0
1776861870086671,-2026,11,-192,-127,24,17,0,0,0,0,0
1776866161072295,-1,-1,-1,-1,-1,-1,56,15561,6656,3064,0
1776866152683496,24,17,0,0,0,0,8,15569,7424,2296,0
1776866152683493,24,17,0,0,0,0,216,15576,6656,3576,0
1776866152683492,26,16,0,0,0,0,168,15584,6912,2808,0
1776866152683492,25,15,0,0,0,0,120,15592,6144,2040,0
1776866152683498,24,15,0,0,0,0,72,15600,6656,3064,0
1776866152683503,27,15,0,0,0,0,24,15608,5632,2296,0
1776866152749038,25,16,0,0,0,0,232,15615,5888,3064,0
1776866152880114,26,16,0,0,0,0,184,15623,6144,3064,0
1776866152749040,25,17,0,0,0,0,136,15631,6144,1528,0
1776866152749031,24,18,0,0,0,0,255,-1,-1,-1,255
1776866161072295,-1,-1,5977,61,-2022,9,63,-32257,6655,4608,0
1776861866105000,0,0,7977,61,-2025,10,65,-32513,6911,4608,0
1776861866105000,0,0,9974,61,-2023,11,65,-32513,6655,4608,0
1776861866105000,0,0,11974,61,-2024,12,63,32511,7167,4352,0
1776861866105000,0,0,13974,61,-2022,14,61,32255,7167,3840,0
1776861866105000,0,0,15974,61,-2022,10,62,32255,7423,3584,0
1776861866105000,0,0,17974,61,-2022,13,62,-32513,7167,4096,0
1776861866105000,0,0,19974,61,-2024,7,59,-32513,6655,4608,0
1776861866105000,0,0,21974,61,-2019,6,66,-32513,5887,4608,0
1776861866105000,0,0,23974,61,-2019,15,70,-32257,6143,3840,0
1776861866105000,0,0,-1,-1,-1,-1,255,-1,-1,-1,255
1776861870128670,-2023,8,-199,-127,26,15,0,0,0,0,0
1776861870130670,-2021,8,-188,-128,26,16,0,0,0,0,0
1776861870132670,-2019,11,-188,-127,26,16,0,0,0,0,0
1776861870134670,-2019,9,-185,-126,25,16,0,0,0,0,0
1776861870136670,-2024,8,-183,-129,24,16,0,0,0,0,0
1776861870138670,-2021,10,-186,-129,25,15,0,0,0,0,0
1776861870140670,-2018,13,-186,-130,24,15,0,0,0,0,0
1776861870142670,-2016,9,-186,-130,25,16,0,0,0,0,0
1776861870144670,-2021,5,-182,-127,25,17,0,0,0,0,0
1776861870146670,-2023,9,-187,-128,23,17,0,0,0,0,0
1776866161072295,-1,-1,-1,-1,-1,-1,150,15795,6144,3832,0
1776866152683499,23,16,0,0,0,0,102,15803,7424,3320,0
1776866152749027,25,14,0,0,0,0,54,15811,7424,3064,0
1776866152749026,24,16,0,0,0,0,6,15819,7424,2552,0
1776866152749035,24,16,0,0,0,0,214,15826,6144,2552,0
1776866152814569,25,17,0,0,0,0,166,15834,7168,2808,0
1776866152749032,25,15,0,0,0,0,118,15842,6144,1272,0
1776866152617953,24,14,0,0,0,0,70,15850,5888,3064,0
1776866152683484,25,14,0,0,0,0,22,15858,7424,3320,0
1776866152749020,25,13,0,0,0,0,231,15865,7168,2040,0
1776866152814570,25,15,0,0,0,0,255,-1,-1,-1,255
1776866161072295,-1,-1,439,62,-2026,15,73,-32513,6399,4096,0
1776861866105000,0,0,2439,62,-2022,11,69,32767,6143,4096,0
1776861866105000,0,0,4439,62,-2023,10,62,32767,6399,4096,0
1776861866105000,0,0,6439,62,-2019,10,72,-32513,6911,3840,0
1776861866105000,0,0,8439,62,-2018,11,65,-32513,7167,4608,0
1776861866105000,0,0,10439,62,-2025,10,61,-32513,6911,4352,0
1776861866105000,0,0,12439,62,-2023,14,62,32767,7423,4096,0
1776861866105000,0,0,14439,62,-2022,12,67,32511,7167,3584,0
1776861866105000,0,0,16439,62,-2022,11,81,32767,7423,4096,0
1776861866105000,0,0,18439,62,-2017,9,75,32255,7423,3840,0
1776861866105000,0,0,-1,-1,-1,-1,255,-1,-1,-1,255
1776861870188672,-2021,6,-191,-130,27,15,0,0,0,0,0
1776861870238650,-2016,10,-188,-128,27,16,0,0,0,0,0
1776861870240651,-2022,5,-186,-127,26,15,0,0,0,0,0
1776861870242651,-2027,8,-181,-128,25,16,0,0,0,0,0
1776861870244651,-2020,9,-189,-126,24,17,0,0,0,0,0
1776861870246651,-2018,8,-197,-128,26,16,0,0,0,0,0
1776861870248651,-2020,8,-191,-129,25,15,0,0,0,0,0
1776861870250651,-2023,6,-182,-129,24,16,0,0,0,0,0
1776861870252651,-2027,7,-186,-129,25,17,0,0,0,0,0
1776861870254651,-2029,11,-182,-129,25,16,0,0,0,0,0
1776866161072295,-1,-1,-1,-1,-1,-1,99,16217,5120,2296,0
1776866152683493,27,16,0,0,0,0,51,16225,6656,3576,0
1776866152683493,26,17,0,0,0,0,3,16233,5120,2808,0
1776866152683498,26,16,0,0,0,0,211,16240,4352,2296,0
1776866152683498,25,14,0,0,0,0,163,16248,4864,2040,0
1776866152683495,25,15,0,0,0,0,115,16256,6912,760,0
1776866152683493,27,15,0,0,0,0,67,16264,6656,2040,0
1776866152814577,27,16,0,0,0,0,19,16272,7424,2040,0
1776866152814579,26,17,0,0,0,0,227,16279,6400,3320,0
1776866152749036,26,17,0,0,0,0,179,16287,5376,2296,0
1776866152749031,26,16,0,0,0,0,255,-1,-1,-1,255
1776866161072295,-1,-1,-22653,63,-2023,13,66,32511,6911,4352,0
1776861866105000,0,0,-20653,63,-2018,15,62,32511,7423,4352,0
1776861866105000,0,0,-18653,63,-2014,9,55,32767,7423,4352,0
1776861866105000,0,0,-16653,63,-2017,14,67,-32513,6911,3840,0
1776861866105000,0,0,-14653,63,-2018,9,63,-32257,6143,4352,0
1776861866105000,0,0,-12653,63,-2020,8,68,32511,6399,4096,0
1776861866105000,0,0,-10653,63,-2021,11,65,32767,6399,3840,0
1776861866105000,0,0,-8653,63,-2017,11,59,-32513,6399,4352,0
1776861866105000,0,0,-6653,63,-2020,14,69,32767,6655,4352,0
1776861866105000,0,0,-4652,63,-2021,10,71,32767,6911,4096,0
1776861866105000,0,0,-1,-1,-1,-1,255,-1,-1,-1,255
1776861870296652,-2021,4,-177,-129,26,17,0,0,0,0,0
1776861870298652,-2016,7,-182,-129,24,18,0,0,0,0,0
1776861870300652,-2020,6,-189,-129,24,17,0,0,0,0,0
1776861870302652,-2025,8,-196,-128,25,17,0,0,0,0,0
1776861870304652,-2025,11,-201,-129,24,16,0,0,0,0,0
1776861870306652,-2028,11,-196,-127,24,16,0,0,0,0,0
1776861870308652,-2023,8,-195,-127,24,15,0,0,0,0,0
1776861870310652,-2027,6,-190,-128,25,14,0,0,0,0,0
1776861870312652,-2028,7,-191,-128,25,15,0,0,0,0,0
1776861870314652,-2024,5,-200,-131,26,15,0,0,0,0,0
1776866161072295,-1,-1,-1,-1,-1,-1,196,16451,5376,3064,0
1776866152486879,26,16,0,0,0,0,149,16459,4864,4600,0
1776866152683492,24,16,0,0,0,0,98,16467,7168,4344,0
1776866152683496,25,15,0,0,0,0,50,16475,6144,4088,0
1776866152814566,25,15,0,0,0,0,2,16483,6400,4088,0
1776866152814572,24,15,0,0,0,0,210,16490,6144,3576,0
1776866152749040,24,17,0,0,0,0,162,16498,5632,2808,0
1776866152814572,24,17,0,0,0,0,114,16506,5120,3320,0
1776866152880112,25,16,0,0,0,0,66,16514,5632,2552,0
1776866152814573,26,16,0,0,0,0,18,16522,6656,2552,0
1776866152814578,25,16,0,0,0,0,255,-1,-1,-1,255
1776866161072295,-1,-1,-28189,64,-2023,14,69,-32513,5887,4096,0
1776861866105000,0,0,-26189,64,-2023,19,69,32767,6655,4608,0
1776861866105000,0,0,-24189,64,-2022,13,66,-32513,6655,4864,0
1776861866105000,0,0,-22189,64,-2019,7,62,-32513,6655,4864,0
1776861866105000,0,0,-20189,64,-2016,9,61,-32513,7167,4864,0
1776861866105000,0,0,-18189,64,-2021,10,52,-32257,7423,4608,0
1776861866105000,0,0,-16189,64,-2023,6,60,-32513,7423,4096,0
1776861866105000,0,0,-14189,64,-2016,8,66,32255,6911,4096,0
1776861866105000,0,0,-12189,64,-2015,10,66,32767,6143,4096,0
1776861866105000,0,0,-10189,64,-2018,6,61,32767,6399,3584,0
1776861866105000,0,0,-1,-1,-1,-1,255,-1,-1,-1,255
1776861870356651,-2021,14,-197,-129,24,15,0,0,0,0,0
1776861870358651,-2018,14,-197,-128,25,17,0,0,0,0,0
1776861870360651,-2020,13,-202,-127,27,17,0,0,0,0,0
1776861870362651,-2020,10,-197,-130,28,16,0,0,0,0,0
1776861870364651,-2026,15,-193,-129,25,17,0,0,0,0,0
1776861870366651,-2025,10,-196,-128,23,17,0,0,0,0,0
1776861870368651,-2020,12,-192,-129,25,16,0,0,0,0,0
1776861870370651,-2020,12,-189,-128,24,16,0,0,0,0,0
1776861870372651,-2022,12,-191,-128,23,18,0,0,0,0,0
1776861870374651,-2020,13,-181,-127,22,18,0,0,0,0,0
1776866161072295,-1,-1,-1,-1,-1,-1,35,16686,7424,3320,0
1776866152749041,22,15,0,0,0,0,243,16693,7424,2808,0
1776866152617963,21,16,0,0,0,0,195,16701,6400,2296,0
1776866152683495,21,16,0,0,0,0,147,16709,6656,2296,0
1776866152814565,23,16,0,0,0,0,99,16717,5888,2808,0
1776866152814566,23,15,0,0,0,0,51,16725,6656,2552,0
1776866152683495,24,16,0,0,0,0,3,16733,6912,2552,0
1776866152617959,25,17,0,0,0,0,211,16740,7168,2040,0
1776866152617955,25,17,0,0,0,0,163,16748,7168,2296,0
1776866152749025,25,16,0,0,0,0,115,16756,7680,3064,0
1776866152814569,27,16,0,0,0,0,255,-1,-1,-1,255
1776866161072295,-1,-1,31811,65,-2019,9,69,-32257,6911,3840,0
1776861866105000,0,0,-31725,65,-2022,9,62,-32257,6655,3840,0
1776861866105000,0,0,-29725,65,-2022,11,69,-32257,6911,4096,0
1776861866105000,0,0,-27725,65,-2021,7,52,-32513,6399,4096,0
1776861866105000,0,0,-25725,65,-2021,6,53,32255,6655,3840,0
1776861866105000,0,0,-23725,65,-2021,8,59,32767,6399,3584,0
1776861866105000,0,0,-21725,65,-2023,5,71,32767,6143,3840,0
1776861866105000,0,0,-19725,65,-2022,10,70,32767,6655,4096,0
1776861866105000,0,0,-17725,65,-2025,10,69,-32257,6911,4352,0
1776861866105000,0,0,-15725,65,-2024,10,68,-32513,6655,4352,0
1776861866105000,0,0,-1,-1,-1,-1,255,-1,-1,-1,255
1776861870416651,-2022,8,-190,-128,26,16,0,0,0,0,0
1776861870418651,-2026,14,-189,-126,27,17,0,0,0,0,0
1776861870420651,-2019,14,-183,-128,28,17,0,0,0,0,0
1776861870422651,-2019,11,-188,-130,26,16,0,0,0,0,0
1776861870424651,-2023,9,-188,-130,24,17,0,0,0,0,0
1776861870426651,-2022,11,-184,-128,23,18,0,0,0,0,0
1776861870428651,-2020,11,-192,-127,25,16,0,0,0,0,0
1776861870430651,-2021,12,-187,-127,24,15,0,0,0,0,0
1776861870432651,-2017,12,-188,-127,23,16,0,0,0,0,0
1776861870434651,-2017,16,-188,-129,24,16,0,0,0,0,0
1776866161072295,-1,-1,-1,-1,-1,-1,131,16920,7168,4856,0
1776866152749038,24,16,0,0,0,0,83,16928,6400,3576,0
1776866152683498,26,15,0,0,0,0,35,16936,6656,1528,0
1776866152617961,25,16,0,0,0,0,243,16943,6912,1016,0
1776866152683504,26,16,0,0,0,0,195,16951,6144,2296,0
1776866152683497,26,15,0,0,0,0,147,16959,6912,3576,0
1776866152617951,27,15,0,0,0,0,99,16967,6656,2552,0
1776866152683491,24,15,0,0,0,0,51,16975,7680,2808,0
1776866152617966,24,16,0,0,0,0,3,16983,6912,1784,0
1776866152683506,24,17,0,0,0,0,211,16990,5632,3576,0
1776866152749050,24,16,0,0,0,0,255,-1,-1,-1,255
1776866161072295,-1,-1,26275,66,-2023,11,82,-32513,6399,4352,0
1776861866105000,0,0,28275,66,-2024,10,64,32767,6399,4096,0
1776861866105000,0,0,30275,66,-2028,9,62,-32513,6911,4096,0
1776861866105000,0,0,32275,66,-2023,13,62,-32513,7167,4096,0
1776861866105000,0,0,-31261,66,-2015,14,57,32767,7423,3840,0
1776861866105000,0,0,-29261,66,-2018,10,72,-32513,7167,4096,0
1776861866105000,0,0,-27261,66,-2024,10,74,-32257,6655,4096,0
1776861866105000,0,0,-25260,66,-2021,8,73,-32513,6399,4096,0
1776861866105000,0,0,-23261,66,-2026,4,60,32767,6399,3840,0
1776861866105000,0,0,-21261,66,-2020,12,58,32767,6399,4096,0
1776861866105000,0,0,-1,-1,-1,-1,255,-1,-1,-1,255
1776861870476651,-2023,11,-192,-129,25,14,0,0,0,0,0
1776861870478651,-2028,11,-191,-128,24,14,0,0,0,0,0
1776861870480651,-2025,15,-198,-127,22,15,0,0,0,0,0
1776861870482651,-2022,17,-191,-128,23,15,0,0,0,0,0
1776861870484651,-2026,12,-201,-128,25,16,0,0,0,0,0
1776861870486651,-2028,8,-193,-127,25,16,0,0,0,0,0
1776861870488652,-2025,5,-194,-127,26,17,0,0,0,0,0
1776861870490652,-2025,6,-196,-126,25,17,0,0,0,0,0
1776861870492652,-2027,14,-196,-128,23,16,0,0,0,0,0
1776861870494652,-2025,12,-188,-127,24,17,0,0,0,0,0
1776866161072295,-1,-1,-1,-1,-1,-1,228,17154,6656,1528,0
1776866152683498,24,16,0,0,0,0,180,17162,6912,2040,0
1776866152617959,23,15,0,0,0,0,132,17170,4096,2552,0
1776866152683491,23,15,0,0,0,0,84,17178,5888,3064,0
1776866152749034,22,16,0,0,0,0,36,17186,5376,3064,0
1776866152683486,26,17,0,0,0,0,244,17193,7936,1272,0
1776866152683498,27,16,0,0,0,0,196,17201,7168,2808,0
1776866152683501,26,17,0,0,0,0,148,17209,7424,2808,0
1776866152749041,28,16,0,0,0,0,100,17217,7168,3576,0
1776866152749032,27,16,0,0,0,0,52,17225,7680,1784,0
1776866152749028,27,16,0,0,0,0,255,-1,-1,-1,255
1776866161072295,-1,-1,20740,67,-2019,9,67,-32513,7167,3584,0
1776861866105000,0,0,22740,67,-2016,12,58,32767,6655,3840,0
1776861866105000,0,0,24740,67,-2021,12,59,-32513,6143,3840,0
1776861866105000,0,0,26740,67,-2024,14,62,-32513,6143,4096,0
1776861866105000,0,0,28740,67,-2026,10,68,-32257,6143,4608,0
1776861866105000,0,0,30740,67,-2024,7,79,-32257,6143,4608,0
1776861866105000,0,0,32740,67,-2026,11,68,-32513,6399,4608,0
1776861866105000,0,0,-30796,67,-2026,10,73,32767,6399,4608,0
1776861866105000,0,0,-28796,67,-2020,11,73,32511,6399,3840,0
1776861866105000,0,0,-26796,67,-2021,14,71,32767,6655,4096,0
1776861866105000,0,0,-1,-1,-1,-1,255,-1,-1,-1,255
1776861870536652,-2025,13,-195,-128,25,18,0,0,0,0,0
1776861870538652,-2025,9,-188,-128,25,19,0,0,0,0,0
1776861870540652,-2031,14,-191,-129,24,18,0,0,0,0,0
1776861870542652,-2030,13,-188,-129,23,16,0,0,0,0,0
1776861870544652,-2024,14,-185,-129,24,16,0,0,0,0,0
1776861870546652,-2024,12,-190,-128,24,16,0,0,0,0,0
1776861870548652,-2023,12,-193,-129,27,15,0,0,0,0,0
1776861870550652,-2026,12,-192,-128,28,16,0,0,0,0,0
1776861870552652,-2024,9,-187,-129,26,16,0,0,0,0,0
1776861870554652,-2027,12,-189,-128,25,17,0,0,0,0,0
1776866161072295,-1,-1,-1,-1,-1,-1,68,17389,5376,2040,0
1776866152880104,25,18,0,0,0,0,110,17594,5888,2296,0
1776866152552424,23,17,0,0,0,0,62,17602,7680,2808,0
1776866152552423,24,16,0,0,0,0,14,17610,6656,3576,0
1776866152617959,24,16,0,0,0,0,222,17617,6912,3064,0
1776866152749034,24,17,0,0,0,0,174,17625,7168,2552,0
1776866152814567,22,16,0,0,0,0,126,17633,7424,3576,0
1776866152749033,23,16,0,0,0,0,78,17641,6144,2552,0
1776866152683508,25,18,0,0,0,0,30,17649,7168,2552,0
1776866152683496,27,18,0,0,0,0,238,17656,6656,2296,0
1776866152617962,28,15,0,0,0,0,255,-1,-1,-1,255
1776866161072295,-1,-1,190,69,-2021,6,68,32767,6655,4096,0
1776861866105000,0,0,2191,69,-2020,4,67,-32257,6655,4096,0
1776861866105000,0,0,4191,69,-2023,10,77,-32257,6911,4352,0
1776861866105000,0,0,6191,69,-2026,13,73,-32257,6399,4352,0
1776861866105000,0,0,8191,69,-2025,8,53,-32513,6655,4352,0
1776861866105000,0,0,10191,69,-2023,9,53,-32513,6911,4096,0
1776861866105000,0,0,12191,69,-2021,9,53,32767,7167,4352,0
1776861866105000,0,0,14191,69,-2024,7,52,32767,7167,4864,0
1776861866105000,0,0,16191,69,-2022,6,61,32255,6655,4608,0
1776861866105000,0,0,18191,69,-2025,8,64,32255,7167,4608,0
1776861866105000,0,0,-1,-1,-1,-1,255,-1,-1,-1,255
1776861870647175,-2025,9,-193,-131,28,18,0,0,0,0,0
1776861870649176,-2024,10,-182,-129,26,18,0,0,0,0,0
1776861870651176,-2026,8,-190,-130,25,18,0,0,0,0,0
1776861870653176,-2025,11,-196,-129,24,18,0,0,0,0,0
1776861870655176,-2020,5,-193,-128,24,17,0,0,0,0,0
1776861870657176,-2023,4,-196,-126,24,16,0,0,0,0,0
1776861870659176,-2019,5,-202,-129,23,17,0,0,0,0,0
1776861870661176,-2016,10,-196,-129,22,18,0,0,0,0,0
1776861870663176,-2019,13,-194,-128,23,16,0,0,0,0,0
1776861870665176,-2025,13,-194,-128,27,16,0,0,0,0,0
1776866161072295,-1,-1,-1,-1,-1,-1,0,17821,5120,2040,0
1776866152683500,26,17,0,0,0,0,208,17828,5888,2808,0
1776866152814568,24,17,0,0,0,0,160,17836,7168,2040,0
1776866152617955,26,16,0,0,0,0,112,17844,6400,2296,0
1776866152749029,25,15,0,0,0,0,64,17852,7168,4344,0
1776866152749034,25,16,0,0,0,0,16,17860,6656,3320,0
1776866152683493,23,15,0,0,0,0,224,17867,7680,2808,0
1776866152814561,23,13,0,0,0,0,176,17875,6656,1784,0
1776866152617952,22,14,0,0,0,0,128,17883,6656,3064,0
1776866152552414,24,16,0,0,0,0,80,17891,6400,3320,0
1776866152749029,25,17,0,0,0,0,255,-1,-1,-1,255
1776866161072295,-1,-1,-5344,69,-2026,6,69,32767,6143,3840,0
1776861866105000,0,0,-3344,69,-2029,8,69,-32513,6655,3840,0
1776861866105000,0,0,-1344,69,-2027,13,63,-32513,7167,4352,0
1776861866105000,0,0,656,70,-2027,13,59,-32513,7423,4096,0
1776861866105000,0,0,2656,70,-2020,8,57,-32513,7167,3840,0
1776861866105000,0,0,4656,70,-2021,12,67,32767,6655,3584,0
1776861866105000,0,0,6656,70,-2023,8,61,-32257,6655,3584,0
1776861866105000,0,0,8656,70,-2020,10,68,-32513,6911,3840,0
1776861866105000,0,0,10656,70,-2022,8,71,-32513,7167,4352,0
1776861866105000,0,0,12656,70,-2021,5,56,32767,6911,4096,0
1776861866105000,0,0,-1,-1,-1,-1,255,-1,-1,-1,255
1776861870707176,-2020,10,-193,-127,26,17,0,0,0,0,0
1776861870709176,-2023,10,-192,-129,25,16,0,0,0,0,0
1776861870711176,-2024,10,-190,-128,26,17,0,0,0,0,0
1776861870713176,-2022,9,-194,-128,26,17,0,0,0,0,0
1776861870715176,-2018,9,-195,-128,26,16,0,0,0,0,0
1776861870717176,-2016,8,-193,-129,26,15,0,0,0,0,0
1776861870719176,-2015,8,-192,-129,26,15,0,0,0,0,0
1776861870721176,-2018,9,-194,-127,26,15,0,0,0,0,0
1776861870723176,-2012,9,-195,-128,26,17,0,0,0,0,0
1776861870725176,-2016,9,-191,-128,27,17,0,0,0,0,0
1776866161072295,-1,-1,-1,-1,-1,-1,96,18055,7936,2040,0
1776866152749025,25,17,0,0,0,0,48,18063,7424,3064,0
1776866152814569,22,15,0,0,0,0,0,18071,7424,3064,0
1776866152814564,22,14,0,0,0,0,208,18078,7168,2040,0
1776866152814558,24,14,0,0,0,0,160,18086,6656,2296,0
1776866152814576,23,14,0,0,0,0,112,18094,8704,2296,0
1776866152683497,25,16,0,0,0,0,64,18102,7680,3320,0
1776866152683492,26,16,0,0,0,0,16,18110,7936,2296,0
1776866152683503,25,16,0,0,0,0,224,18117,6144,2040,0
1776866152749031,23,18,0,0,0,0,176,18125,5888,2040,0
1776866152617959,23,18,0,0,0,0,255,-1,-1,-1,255
1776866161072295,-1,-1,-10880,70,-2015,10,64,-32513,6143,4352,0
1776861866105000,0,0,-8880,70,-2017,8,58,32767,6399,4096,0
1776861866105000,0,0,-6880,70,-2023,10,61,-32513,6399,3840,0
1776861866105000,0,0,-4880,70,-2020,11,72,-32513,6143,4352,0
1776861866105000,0,0,-2880,70,-2022,7,69,32255,6399,4352,0
1776861866105000,0,0,-880,70,-2023,7,60,32255,6655,4096,0
1776861866105000,0,0,1120,71,-2024,12,74,32511,6399,4096,0
1776861866105000,0,0,3120,71,-2027,8,67,32511,6655,4096,0
1776861866105000,0,0,5120,71,-2023,9,68,32767,6911,3584,0
1776861866105000,0,0,7120,71,-2020,10,69,32767,7423,3584,0
1776861866105000,0,0,-1,-1,-1,-1,255,-1,-1,-1,255
1776861870767176,-2021,8,-191,-130,27,15,0,0,0,0,0
1776861870769176,-2022,4,-189,-130,25,16,0,0,0,0,0
1776861870771176,-2022,9,-191,-130,27,16,0,0,0,0,0
1776861870773176,-2025,14,-185,-131,27,14,0,0,0,0,0
1776861870775176,-2026,10,-198,-130,27,14,0,0,0,0,0
1776861870777176,-2021,10,-194,-129,27,15,0,0,0,0,0
1776861870779176,-2018,13,-194,-130,27,16,0,0,0,0,0
1776861870781176,-2023,9,-185,-130,25,16,0,0,0,0,0
1776861870783176,-2026,11,-182,-128,25,15,0,0,0,0,0
1776861870785176,-2023,10,-178,-128,27,16,0,0,0,0,0
1776866161072295,-1,-1,-1,-1,-1,-1,192,18289,6400,2296,0
1776866152617974,28,18,0,0,0,0,144,18297,6912,3576,0
1776866152749040,28,17,0,0,0,0,96,18305,8192,3576,0
1776866152814571,26,16,0,0,0,0,48,18313,7936,3576,0
1776866152814565,24,15,0,0,0,0,0,18321,6912,1784,0
1776866152749032,26,16,0,0,0,0,208,18328,7680,2552,0
1776866152617960,26,16,0,0,0,0,160,18336,8960,4088,0
1776866152683498,25,16,0,0,0,0,112,18344,7424,4600,0
1776866152814562,24,17,0,0,0,0,64,18352,6400,3576,0
1776866152814559,23,18,0,0,0,0,16,18360,5632,2552,0
1776866152683499,24,17,0,0,0,0,255,-1,-1,-1,255
1776866161072295,-1,-1,-16416,71,-2024,9,63,32767,6911,3840,0
1776861866105000,0,0,-14416,71,-2022,15,73,32767,7167,3840,0
1776861866105000,0,0,-12416,71,-2018,9,70,-32001,6911,3840,0
1776861866105000,0,0,-10416,71,-2015,9,71,32767,6655,3840,0
1776861866105000,0,0,-8416,71,-2019,13,71,32767,6655,4096,0
1776861866105000,0,0,-6416,71,-2021,18,63,-32513,6911,4096,0
1776861866105000,0,0,-4416,71,-2020,11,63,32767,6911,4096,0
1776861866105000,0,0,-2416,71,-2022,12,61,32767,6911,3584,0
1776861866105000,0,0,-416,71,-2023,10,69,-32513,6399,3584,0
1776861866105000,0,0,1584,72,-2021,11,70,-32513,6399,4096,0
1776861866105000,0,0,-1,-1,-1,-1,255,-1,-1,-1,255
1776861870827176,-2027,12,-182,-130,26,16,0,0,0,0,0
1776861870829176,-2027,8,-189,-129,25,15,0,0,0,0,0
1776861870831176,-2024,11,-192,-129,25,15,0,0,0,0,0
1776861870833176,-2023,15,-197,-129,25,16,0,0,0,0,0
1776861870835176,-2022,11,-187,-130,23,15,0,0,0,0,0
1776861870837176,-2025,11,-187,-128,25,18,0,0,0,0,0
1776861870839176,-2018,10,-194,-129,26,17,0,0,0,0,0
1776861870841176,-2016,6,-190,-130,25,16,0,0,0,0,0
1776861870843176,-2027,7,-190,-130,25,15,0,0,0,0,0
1776861870845176,-2024,6,-183,-129,23,14,0,0,0,0,0
1776866161072295,-1,-1,-1,-1,-1,-1,32,18524,7424,2552,0
1776866152683493,26,15,0,0,0,0,241,18531,6912,2808,0
1776866152617965,28,18,0,0,0,0,190,18539,6912,1784,0
1776866152617961,26,16,0,0,0,0,142,18547,6400,1784,0
1776866152749030,26,15,0,0,0,0,94,18555,6144,3832,0
1776866152683496,26,16,0,0,0,0,46,18563,5632,3064,0
1776866152683502,26,17,0,0,0,0,254,18570,5376,2552,0
1776866152814577,27,17,0,0,0,0,207,18578,6912,3320,0
1776866152749037,24,17,0,0,0,0,159,18586,6400,4600,0
1776866152683492,24,17,0,0,0,0,111,18594,5376,4600,0
1776866152749021,23,15,0,0,0,0,255,-1,-1,-1,255
1776866161072295,-1,-1,-21953,72,-2029,14,57,32767,5887,4096,0
1776861866105000,0,0,-19952,72,-2031,14,61,-32513,5887,4096,0
1776861866105000,0,0,-17952,72,-2025,14,65,32767,6399,3584,0
1776861866105000,0,0,-15952,72,-2021,16,69,32767,6655,3584,0
1776861866105000,0,0,-13952,72,-2014,12,77,-32257,6655,3584,0
1776861866105000,0,0,-11952,72,-2012,11,65,-32513,6911,4096,0
