# KAPUTNIK Flight Data v2
# Sample rate: 500 Hz
# Samples: 3250
# Accel range: +/-16 g
# Gyro range: +/-2000 dps
# Epoch start: 1783350000000
epoch_ms,ax,ay,az,gx,gy,gz
1783350000000,-2,-3,2052,7,-1,2
1783350000002,24,17,2047,2,-1,12
1783350000004,-12,-16,2057,12,0,6
1783350000006,-2,20,2009,-2,4,3
1783350000008,-36,11,2061,0,2,-1
1783350000010,-6,0,2039,-4,6,3
1783350000012,4,32,2033,3,0,3
1783350000014,-15,5,2051,5,16,-4
1783350000016,-22,-8,2029,-4,-5,-3
1783350000018,9,-4,2076,-4,0,-1
1783350000020,5,-12,2052,-2,-5,-2
1783350000022,6,0,2069,5,4,-10
1783350000024,24,4,2051,-3,-11,8
1783350000026,-35,-8,2048,0,-2,-4
1783350000028,-11,27,2060,0,7,-5
1783350000030,3,6,2041,-2,4,3
1783350000032,17,34,2057,-6,-7,-1
1783350000034,-1,6,2064,-4,7,-10
1783350000036,-22,12,2033,4,-4,7
1783350000038,-18,17,2052,2,0,-2
1783350000040,16,-35,2079,10,1,-2
1783350000042,21,-5,2075,5,2,9
1783350000044,-17,26,2043,-4,0,4
1783350000046,7,7,2066,1,5,-5
1783350000048,-16,3,2050,-7,-2,7
1783350000050,-19,-16,2026,2,-7,-9
1783350000052,3,-5,2043,3,0,1
1783350000054,1,-17,2074,-3,7,-1
1783350000056,-15,-4,2058,5,-8,0
1783350000058,-12,-1,2053,-4,-6,-2
1783350000060,-13,4,2065,1,-6,4
1783350000062,10,14,2025,-8,-4,-10
1783350000064,26,8,2048,4,-6,-4
1783350000066,-10,5,2048,-2,-5,-5
1783350000068,-11,-22,2009,-3,0,-5
1783350000070,29,25,2024,-5,0,2
1783350000072,15,-29,2048,-3,-11,4
1783350000074,4,-5,2048,3,6,9
1783350000076,30,1,2048,-6,4,-5
1783350000078,-37,10,2066,0,-1,-3
1783350000080,-10,3,2055,-6,5,-6
1783350000082,20,-4,2032,-5,0,0
1783350000084,13,-14,2059,6,4,3
1783350000086,-5,22,2031,5,9,-5
1783350000088,-17,-9,2038,3,-5,7
1783350000090,12,-25,2034,-5,6,2
1783350000092,-6,15,2041,5,2,3
1783350000094,-15,6,2030,-9,-5,4
1783350000096,12,-5,2064,-2,1,-1
1783350000098,-13,22,2030,2,-4,1
1783350000100,-14,12,2055,-2,-4,0
1783350000102,15,-1,2047,9,-8,4
1783350000104,-7,2,2030,-1,9,1
1783350000106,-14,20,2051,-5,-4,-1
1783350000108,0,-10,2021,-1,-2,-4
1783350000110,-13,-10,2056,-1,-6,-3
1783350000112,-16,-33,2001,6,-2,1
1783350000114,-12,-26,2049,-1,8,0
1783350000116,-25,-4,2055,1,2,-3
1783350000118,-13,-14,2069,2,-3,12
1783350000120,-27,3,2035,5,-3,-3
1783350000122,6,-7,2065,2,-1,-8
1783350000124,-10,11,2071,-3,-7,2
1783350000126,-13,-1,2025,-4,-7,-4
1783350000128,-8,-5,2075,-5,-1,3
1783350000130,12,-7,2044,-4,9,-1
1783350000132,26,-8,2049,7,6,0
1783350000134,14,-7,2062,9,9,-5
1783350000136,19,1,2058,8,-2,0
1783350000138,-5,-8,2043,5,-3,-2
1783350000140,6,6,2065,3,3,2
1783350000142,-6,-3,2045,2,1,-14
1783350000144,-10,-12,2048,0,-2,3
1783350000146,22,-9,2049,3,-6,-4
1783350000148,-5,11,2051,-4,-2,-9
1783350000150,17,-10,2055,-2,12,1
1783350000152,7,-2,2082,8,2,3
1783350000154,18,-8,2051,-3,7,-10
1783350000156,-13,-22,2066,0,2,1
1783350000158,6,8,2060,3,-9,-4
1783350000160,15,10,2027,-4,4,-3
1783350000162,0,-8,2065,0,2,-8
1783350000164,8,4,2062,1,9,-6
1783350000166,19,-3,2050,2,4,-9
1783350000168,8,-1,2063,4,-4,2
1783350000170,-10,-26,2041,-6,-3,-4
1783350000172,-3,-4,2051,-7,3,-1
1783350000174,-6,15,2048,3,-1,1
1783350000176,-7,-7,2027,-1,-1,-4
1783350000178,-5,-4,2032,-2,5,-12
1783350000180,-18,-1,2041,-1,-15,-4
1783350000182,23,17,2042,-2,-3,7
1783350000184,-3,11,2050,-7,5,3
1783350000186,-6,35,2051,4,2,1
1783350000188,4,-16,2026,8,6,0
1783350000190,7,8,2052,-8,-1,-7
1783350000192,9,13,2028,-5,0,2
1783350000194,30,-22,2073,-2,-4,-4
1783350000196,-20,12,2040,-8,0,-8
1783350000198,17,16,2047,2,-3,3
1783350000200,16,12,2036,2,4,8
1783350000202,37,-4,2049,-3,5,-9
1783350000204,1,0,2044,-5,-12,5
1783350000206,1,12,2010,-3,0,-1
1783350000208,7,-11,2049,1,-3,-2
1783350000210,1,-3,2044,-3,-1,5
1783350000212,-5,-2,2033,0,-8,-2
1783350000214,41,0,2025,-5,6,14
1783350000216,13,-12,2068,1,-2,1
1783350000218,-3,8,2045,-2,-9,-7
1783350000220,10,-2,2048,2,-5,0
1783350000222,-7,-2,2017,-3,2,-2
1783350000224,8,6,2037,-6,-5,3
1783350000226,-3,-6,2009,-3,-10,2
1783350000228,-6,1,2008,7,5,2
1783350000230,-11,8,2058,2,0,3
1783350000232,-18,-15,2053,-2,2,9
1783350000234,-1,-25,2016,3,-5,5
1783350000236,13,27,2046,5,4,0
1783350000238,4,-12,2033,5,-1,8
1783350000240,10,-8,2071,2,-3,-5
1783350000242,16,-24,2051,-4,9,5
1783350000244,-30,0,2042,-2,0,-2
1783350000246,-16,-14,2044,2,-4,-3
1783350000248,38,-32,2046,-1,8,1
1783350000250,-13,7,2053,2,0,1
1783350000252,-10,0,2061,0,0,-2
1783350000254,0,-5,2064,-7,-6,3
1783350000256,7,-21,2042,-7,-1,-2
1783350000258,-6,-10,2050,13,-9,3
1783350000260,-7,2,2045,1,6,6
1783350000262,2,13,2035,3,1,-5
1783350000264,-20,-31,2023,-6,5,-1
1783350000266,10,12,2026,-10,-3,-5
1783350000268,0,-29,2041,8,-3,-1
1783350000270,6,-26,2068,-4,3,7
1783350000272,4,9,2031,-5,5,2
1783350000274,-16,9,2065,-4,-4,-1
1783350000276,24,-15,2052,-10,8,-3
1783350000278,9,14,2035,-5,-1,2
1783350000280,2,-16,2022,9,-3,8
1783350000282,11,-8,2036,-1,6,4
1783350000284,11,-8,2064,6,5,-8
1783350000286,12,14,2022,2,-5,4
1783350000288,-15,-25,2061,2,4,-1
1783350000290,-5,-17,2060,-4,1,3
1783350000292,-15,18,2067,2,-1,-7
1783350000294,-1,6,2039,-2,5,3
1783350000296,-3,-3,2051,9,4,4
1783350000298,3,30,2041,-3,1,-6
1783350000300,-13,14,2026,-2,-2,1
1783350000302,1,6,2047,1,9,14
1783350000304,3,-14,2066,-3,10,-3
1783350000306,8,-18,2043,-3,-4,-8
1783350000308,31,16,2042,-2,6,2
1783350000310,-13,-12,2030,5,-4,-2
1783350000312,-9,-8,2049,2,1,-3
1783350000314,-49,0,2041,4,2,6
1783350000316,-6,-7,2022,-4,-1,5
1783350000318,9,-11,2045,0,-1,4
1783350000320,-4,21,2031,-4,2,-5
1783350000322,-8,9,2062,0,0,5
1783350000324,2,25,2049,1,0,3
1783350000326,-14,1,2060,-9,-8,2
1783350000328,-42,-6,2064,5,1,-6
1783350000330,-12,-8,2054,-8,-5,0
1783350000332,-6,22,2039,-4,-5,-1
1783350000334,-17,-3,2059,-6,1,6
1783350000336,5,-4,2068,5,-2,1
1783350000338,-9,-11,2030,6,0,13
1783350000340,-14,5,2016,-4,1,-2
1783350000342,-27,20,2050,-5,9,1
1783350000344,-9,9,2052,2,4,5
1783350000346,-22,2,2061,1,2,5
1783350000348,1,-29,2037,-1,3,1
1783350000350,-6,26,2055,0,4,1
1783350000352,-13,-2,2037,-1,-3,-3
1783350000354,1,9,2056,0,6,-6
1783350000356,3,-31,2049,4,-7,7
1783350000358,-8,0,2040,5,0,-7
1783350000360,-30,-5,2038,3,3,-5
1783350000362,-1,-7,2055,-8,-12,-1
1783350000364,-11,10,2055,2,1,7
1783350000366,-15,2,2038,11,1,-3
1783350000368,-19,5,2041,-6,4,0
1783350000370,-10,-8,2043,-2,3,0
1783350000372,-5,26,2054,-7,0,-9
1783350000374,-7,23,2032,4,0,5
1783350000376,10,-3,2067,8,0,0
1783350000378,21,-9,2041,1,-1,3
1783350000380,-3,-12,2060,-7,0,-6
1783350000382,19,20,2055,-10,-2,-2
1783350000384,22,17,2051,-5,-7,1
1783350000386,-19,4,2048,0,-3,6
1783350000388,11,-7,2054,-4,-5,4
1783350000390,-9,-15,2067,4,-5,-2
1783350000392,-6,8,2063,6,-8,1
1783350000394,6,-1,2081,2,9,-1
1783350000396,-9,-9,2046,8,3,5
1783350000398,26,-1,2034,-1,-6,-12
1783350000400,-2,-4,2040,-2,2,1
1783350000402,-10,4,2064,-4,4,-2
1783350000404,-29,14,2056,5,6,3
1783350000406,0,16,2053,-9,-5,6
1783350000408,-17,12,2038,-3,-2,0
1783350000410,-12,-3,2060,5,-1,-3
1783350000412,2,4,2042,-4,-1,2
1783350000414,10,12,2030,-9,-10,6
1783350000416,-3,-3,2053,8,3,7
1783350000418,21,6,2037,-2,3,-4
1783350000420,3,17,2067,7,-2,-2
1783350000422,29,-5,2060,5,-9,1
1783350000424,7,-15,2064,1,1,-1
1783350000426,11,-8,2059,3,4,0
1783350000428,13,11,2065,5,2,-1
1783350000430,13,-10,2057,3,-3,-4
1783350000432,-12,18,2038,4,-1,-2
1783350000434,0,4,2040,0,-4,1
1783350000436,40,-15,2052,1,-7,3
1783350000438,15,9,2069,4,2,-2
1783350000440,-5,-3,2054,2,-1,0
1783350000442,12,0,2031,-3,2,-2
1783350000444,12,5,2048,-6,-8,-4
1783350000446,18,1,2048,-2,4,-10
1783350000448,-21,-15,2052,-8,7,3
1783350000450,1,-26,2042,-1,2,0
1783350000452,4,17,2065,6,-5,13
1783350000454,-18,7,2057,4,-13,-9
1783350000456,21,20,2057,2,5,-1
1783350000458,-4,-8,2064,1,3,-3
1783350000460,-5,-17,2038,-3,10,2
1783350000462,-4,6,2061,-5,-8,-4
1783350000464,18,13,2063,0,2,-5
1783350000466,7,26,2039,-2,-6,3
1783350000468,-13,-13,2036,-3,-1,-1
1783350000470,4,7,2034,6,-9,-1
1783350000472,33,-11,2037,1,10,-2
1783350000474,13,-5,2030,7,0,2
1783350000476,5,-10,2042,-10,0,-5
1783350000478,5,1,2038,-8,2,5
1783350000480,13,28,2048,2,-1,-2
1783350000482,-2,-9,2046,7,-3,-7
1783350000484,-5,-23,2039,-3,9,-4
1783350000486,9,10,2036,10,3,1
1783350000488,1,4,2054,-2,-6,-1
1783350000490,-5,3,2012,4,-1,-13
1783350000492,-9,-4,2050,-4,-1,-2
1783350000494,-14,-24,2052,8,-3,0
1783350000496,23,23,2041,0,-5,-3
1783350000498,-10,-18,2037,-9,-2,-5
1783350000500,-193,68,1944,1,61,2003
1783350000502,-23,181,2461,-30,15,1974
1783350000504,5,-32,2669,-71,39,2019
1783350000506,184,-24,3077,7,108,1990
1783350000508,60,130,3350,10,48,1960
1783350000510,-190,15,3694,49,57,1949
1783350000512,-99,54,3907,-33,52,1976
1783350000514,162,239,4029,53,50,1962
1783350000516,166,78,4483,-20,26,1966
1783350000518,-86,194,4745,-7,17,1984
1783350000520,-267,157,4901,70,74,1984
1783350000522,-261,92,5364,-13,-9,2007
1783350000524,18,363,5406,14,-15,1999
1783350000526,249,152,5743,51,70,2005
1783350000528,0,62,5871,25,54,2056
1783350000530,-81,349,6165,55,79,1982
1783350000532,-168,193,6336,43,50,2083
1783350000534,117,295,6734,18,36,2014
1783350000536,145,113,6954,30,74,1973
1783350000538,-211,125,7253,28,114,2026
1783350000540,-325,184,7464,40,75,2025
1783350000542,47,26,7497,27,23,2016
1783350000544,-95,147,7620,95,51,1990
1783350000546,-57,-114,7905,57,76,1960
1783350000548,-26,101,8157,53,38,1939
1783350000550,-1,298,8461,95,90,2021
1783350000552,86,114,8711,22,59,2052
1783350000554,30,58,8679,40,-10,2058
1783350000556,-72,-12,8886,27,54,2041
1783350000558,65,-36,8966,23,27,2076
1783350000560,129,92,9168,13,16,2014
1783350000562,-70,89,9536,109,15,2050
1783350000564,94,89,9569,39,10,2021
1783350000566,7,147,9894,62,28,2091
1783350000568,-64,257,10051,112,-52,2037
1783350000570,-155,116,10198,55,45,2108
1783350000572,190,188,10245,35,38,2046
1783350000574,207,144,10506,71,55,2033
1783350000576,140,183,10600,79,5,1968
1783350000578,-20,172,10592,15,52,2059
1783350000580,218,88,10938,96,25,2074
1783350000582,181,-31,11057,79,69,2041
1783350000584,29,267,11104,68,74,2051
1783350000586,114,48,11233,128,36,2028
1783350000588,151,-19,11428,48,12,2127
1783350000590,206,-3,11576,63,31,2035
1783350000592,-122,277,11560,82,76,2058
1783350000594,-52,125,11774,41,48,2047
1783350000596,-138,98,12086,83,98,2031
1783350000598,203,6,12074,55,62,2079
1783350000600,-133,-19,12225,48,-20,2041
1783350000602,88,-73,12308,1,4,2088
1783350000604,23,80,12404,38,45,2115
1783350000606,176,-174,12321,95,-15,2043
1783350000608,-125,69,12589,131,75,2066
1783350000610,13,-52,12535,54,70,2079
1783350000612,90,55,12664,61,32,1997
1783350000614,180,52,12665,66,-7,2091
1783350000616,133,26,12999,105,-12,2100
1783350000618,84,150,13096,83,43,2065
1783350000620,161,48,13109,65,48,2055
1783350000622,-21,-1,13280,43,57,2075
1783350000624,137,13,13003,68,12,2039
1783350000626,113,268,13321,69,45,2106
1783350000628,107,220,13414,81,34,2103
1783350000630,71,-3,13612,64,-19,2098
1783350000632,31,300,13546,79,-26,2099
1783350000634,248,-39,13553,57,32,2101
1783350000636,-26,55,13843,96,18,2111
1783350000638,256,165,13680,46,8,2010
1783350000640,217,336,14115,66,4,2056
1783350000642,-22,136,13915,94,21,2112
1783350000644,25,244,14045,51,56,2177
1783350000646,-9,50,14071,64,32,2093
1783350000648,-208,115,14195,43,33,2118
1783350000650,130,4,14193,42,23,2108
1783350000652,115,-49,14384,51,4,2091
1783350000654,343,139,14359,49,-3,2132
1783350000656,19,-8,14300,60,81,2099
1783350000658,166,19,14396,87,43,2124
1783350000660,256,3,14552,77,46,2062
1783350000662,-8,60,14521,87,49,2142
1783350000664,-66,62,14739,89,0,2044
1783350000666,-12,3,14742,20,-28,2070
1783350000668,-22,203,14804,129,24,2149
1783350000670,184,166,14823,73,43,2098
1783350000672,52,-50,14909,61,-32,2224
1783350000674,104,-17,15044,101,-5,2179
1783350000676,293,187,14924,117,-31,2214
1783350000678,-26,59,14735,105,-36,2198
1783350000680,301,88,15067,92,-16,2149
1783350000682,-161,-69,15084,110,32,2125
1783350000684,144,-46,15184,103,24,2140
1783350000686,-22,-77,15214,43,-2,2141
1783350000688,24,-36,15080,34,-8,2138
1783350000690,47,-60,15329,60,-39,2153
1783350000692,111,-59,15206,111,-14,2162
1783350000694,307,142,15278,57,-20,2139
1783350000696,225,-57,15369,105,-7,2194
1783350000698,-58,-81,15304,102,-53,2192
1783350000700,288,67,15452,11,-22,2199
1783350000702,235,135,15489,52,28,2153
1783350000704,-81,-29,15587,85,7,2200
1783350000706,45,46,15537,94,-1,2170
1783350000708,67,-41,15489,95,3,2167
1783350000710,3,52,15435,57,12,2175
1783350000712,328,10,15611,35,-9,2135
1783350000714,200,-317,15873,80,-38,2208
1783350000716,244,242,15636,76,-27,2249
1783350000718,-23,-72,15718,86,-1,2184
1783350000720,-32,144,15484,49,24,2195
1783350000722,-7,65,15719,57,-33,2167
1783350000724,381,-163,15837,83,-3,2223
1783350000726,82,-122,15671,68,15,2149
1783350000728,54,-25,15861,82,20,2157
1783350000730,343,22,15902,34,-31,2161
1783350000732,-227,68,15902,103,15,2242
1783350000734,105,30,15696,81,-51,2167
1783350000736,47,-8,15896,91,-10,2165
1783350000738,348,13,15770,57,-28,2211
1783350000740,163,204,16023,43,-60,2191
1783350000742,105,65,15990,68,3,2203
1783350000744,98,140,16040,78,-21,2168
1783350000746,79,-76,15958,67,27,2192
1783350000748,31,-87,15942,80,38,2169
1783350000750,242,27,15896,58,33,2207
1783350000752,114,55,15972,78,1,2194
1783350000754,152,-15,15960,42,-51,2243
1783350000756,175,-80,15967,69,18,2213
1783350000758,291,15,15957,43,-55,2204
1783350000760,143,296,16144,20,-19,2180
1783350000762,75,-3,15983,18,20,2162
1783350000764,289,-136,15970,57,30,2246
1783350000766,-85,-58,16160,62,-63,2197
1783350000768,155,118,16368,48,10,2203
1783350000770,203,-196,16269,-12,-54,2281
1783350000772,58,160,16194,-11,7,2236
1783350000774,188,47,16154,59,-36,2209
1783350000776,-64,171,16147,7,-59,2271
1783350000778,91,65,16271,-9,-23,2279
1783350000780,269,73,16148,43,-39,2177
1783350000782,306,-49,16101,-2,-31,2234
1783350000784,-24,58,16187,77,-26,2281
1783350000786,209,85,15969,17,-33,2214
1783350000788,0,130,16126,2,-33,2267
1783350000790,325,4,16196,29,-42,2290
1783350000792,131,5,16299,-9,-8,2283
1783350000794,203,4,16183,37,19,2220
1783350000796,188,-100,16418,14,-40,2253
1783350000798,311,146,16204,-13,-8,2282
1783350000800,167,-128,16293,-52,15,2266
1783350000802,185,-83,16182,-4,-32,2225
1783350000804,158,149,16437,66,-58,2221
1783350000806,147,89,16486,35,-63,2233
1783350000808,-86,45,16295,-26,-49,2227
1783350000810,311,31,16446,-5,-56,2256
1783350000812,212,67,16201,-61,-5,2292
1783350000814,351,-180,16219,-66,-62,2266
1783350000816,-218,170,16347,-15,-67,2226
1783350000818,287,-81,16372,49,-6,2229
1783350000820,328,190,16546,22,-16,2218
1783350000822,197,-32,16347,37,-100,2256
1783350000824,2,187,16264,0,-19,2272
1783350000826,129,-77,16313,-2,-59,2283
1783350000828,48,121,16466,-22,-68,2284
1783350000830,136,-51,16134,8,-76,2297
1783350000832,138,105,16298,-77,-12,2332
1783350000834,155,-8,16323,12,-16,2284
1783350000836,-36,62,16454,-43,-68,2286
1783350000838,237,-15,16345,-36,-67,2248
1783350000840,22,65,16232,2,-63,2277
1783350000842,365,-190,16489,-71,-51,2286
1783350000844,-91,-43,16183,-48,-40,2318
1783350000846,32,-180,16493,15,-74,2259
1783350000848,282,44,16250,-24,-25,2329
1783350000850,141,-105,16586,-51,-52,2299
1783350000852,268,-66,16382,16,-39,2319
1783350000854,39,32,16445,-6,-42,2255
1783350000856,261,26,16177,21,-68,2245
1783350000858,212,46,16434,-69,-30,2233
1783350000860,419,220,16245,-88,-68,2300
1783350000862,149,8,16499,-81,-69,2303
1783350000864,356,-41,16404,-51,-87,2263
1783350000866,222,35,16335,-61,-64,2273
1783350000868,173,151,16555,-53,-95,2250
1783350000870,85,124,16364,-44,-61,2329
1783350000872,346,-76,16133,-9,-88,2294
1783350000874,275,-103,16306,-24,-39,2341
1783350000876,217,-110,16212,-15,-31,2283
1783350000878,24,165,16450,-77,-27,2340
1783350000880,57,-239,16242,-50,-63,2314
1783350000882,112,-205,16245,-57,-72,2282
1783350000884,217,-152,16380,-85,-88,2354
1783350000886,92,-247,16457,-75,-34,2284
1783350000888,-70,-181,16251,-12,-52,2304
1783350000890,213,-48,16420,-58,-26,2259
1783350000892,222,-20,16256,-14,-61,2277
1783350000894,108,-181,16326,-116,-61,2294
1783350000896,9,-22,16298,-92,-52,2345
1783350000898,263,-131,16332,-99,-10,2331
1783350000900,17,39,16177,-96,-68,2353
1783350000902,283,-203,16281,-22,-12,2307
1783350000904,253,-193,16172,-22,-13,2313
1783350000906,328,69,16373,-95,20,2304
1783350000908,133,-125,16265,-41,10,2290
1783350000910,230,-120,16347,1,-81,2413
1783350000912,170,-336,16313,-70,-37,2320
1783350000914,335,19,16514,-78,-25,2307
1783350000916,360,-55,16106,-41,-37,2354
1783350000918,213,-85,16243,-72,-72,2309
1783350000920,99,-61,16309,-60,-28,2342
1783350000922,84,-43,16112,-93,12,2296
1783350000924,216,-59,16263,-3,-57,2298
1783350000926,136,108,16274,-55,-60,2320
1783350000928,151,-117,16219,-45,-76,2355
1783350000930,465,36,16375,-87,-93,2346
1783350000932,317,-45,16190,-50,-18,2277
1783350000934,176,-122,16089,-143,-22,2321
1783350000936,286,20,16237,-74,-22,2326
1783350000938,231,-68,16383,-55,-58,2356
1783350000940,336,-64,16114,-97,-34,2349
1783350000942,66,12,16157,-99,-72,2316
1783350000944,-60,-190,16149,-90,-74,2382
1783350000946,275,-192,16034,-63,-51,2352
1783350000948,191,56,16190,-64,-2,2417
1783350000950,311,205,16163,-69,-74,2361
1783350000952,127,-23,16251,-41,-44,2310
1783350000954,412,69,16273,-111,-89,2294
1783350000956,255,-27,16248,-65,-47,2379
1783350000958,302,-78,16252,-88,-32,2360
1783350000960,281,-126,16124,-111,-30,2339
1783350000962,235,35,16091,-93,-33,2394
1783350000964,256,-218,16079,-84,-42,2303
1783350000966,13,-267,16135,-114,-30,2356
1783350000968,287,-6,16284,-39,-27,2354
1783350000970,-59,-60,16166,-52,-82,2300
1783350000972,335,-99,16201,-128,0,2336
1783350000974,128,-77,16206,-30,-22,2363
1783350000976,11,-102,15829,-104,-5,2352
1783350000978,172,12,16272,-50,-23,2371
1783350000980,212,181,16329,-73,0,2395
1783350000982,91,-98,16028,5,4,2413
1783350000984,252,-113,16067,-55,-14,2310
1783350000986,153,-2,15963,-46,-65,2361
1783350000988,160,-45,16153,-59,-25,2374
1783350000990,272,-197,15908,-94,-56,2365
1783350000992,282,-175,16199,-50,-30,2344
1783350000994,284,-106,15915,-82,-47,2379
1783350000996,103,-129,15875,-83,-46,2421
1783350000998,272,-9,16106,-77,-30,2378
1783350001000,323,216,16061,-53,9,2359
1783350001002,64,15,16044,-59,-8,2378
1783350001004,248,-86,16050,-54,-5,2358
1783350001006,107,-161,15908,-52,-82,2399
1783350001008,195,-91,16166,-130,-18,2388
1783350001010,102,-100,16138,-42,15,2418
1783350001012,259,-57,16022,-70,-11,2400
1783350001014,27,-111,16000,-123,-51,2370
1783350001016,131,57,16048,-68,-36,2393
1783350001018,533,-246,16010,-57,-19,2425
1783350001020,298,-168,16178,-40,-14,2383
1783350001022,179,-42,16023,-37,8,2366
1783350001024,363,-46,15998,-16,-70,2363
1783350001026,389,111,15787,-62,46,2406
1783350001028,405,-179,15887,-73,-4,2394
1783350001030,503,181,15837,-42,15,2411
1783350001032,44,156,16040,-88,-34,2388
1783350001034,223,-53,15939,-65,-65,2397
1783350001036,-13,31,15987,-67,-15,2356
1783350001038,499,-219,15828,-85,6,2406
1783350001040,105,-65,15968,-76,33,2386
1783350001042,138,39,15896,28,-12,2398
1783350001044,131,-14,15913,-103,-32,2406
1783350001046,391,-203,16019,-153,-33,2424
1783350001048,57,73,15919,-88,24,2386
1783350001050,141,-89,15886,-80,0,2422
1783350001052,282,-189,15874,-79,-12,2429
1783350001054,548,-58,15802,-75,-38,2435
1783350001056,184,48,15682,-60,6,2414
1783350001058,126,29,15861,-32,37,2407
1783350001060,162,-360,15766,-24,29,2365
1783350001062,216,-206,15846,-84,31,2344
1783350001064,149,-109,15762,-52,57,2392
1783350001066,145,-210,15818,-71,-40,2440
1783350001068,25,-69,15941,-47,-11,2479
1783350001070,-37,129,15832,-1,-29,2412
1783350001072,293,-183,15868,-61,-40,2451
1783350001074,63,-312,15626,-24,33,2405
1783350001076,142,49,15874,9,-63,2403
1783350001078,168,73,15874,-42,7,2371
1783350001080,176,-25,15745,-45,39,2447
1783350001082,315,-12,15682,-69,25,2425
1783350001084,186,-24,15677,-14,-11,2377
1783350001086,445,-105,15705,-13,10,2404
1783350001088,427,-199,15666,-75,-21,2416
1783350001090,336,-32,15743,8,-4,2445
1783350001092,99,-215,15692,-37,-33,2466
1783350001094,175,-233,15683,-42,67,2404
1783350001096,101,-142,15827,6,-4,2400
1783350001098,-20,96,15665,-49,-12,2434
1783350001100,361,-482,15726,-60,-1,2410
1783350001102,181,-236,15576,-35,-26,2410
1783350001104,389,-274,15704,40,16,2435
1783350001106,278,63,15575,-41,-25,2387
1783350001108,171,-303,15466,-39,17,2376
1783350001110,15,-78,15684,-16,-13,2396
1783350001112,248,31,15492,-18,17,2466
1783350001114,254,-112,15716,-31,-31,2425
1783350001116,142,-28,15593,-20,24,2467
1783350001118,126,-67,15651,-44,87,2391
1783350001120,162,-256,15709,57,7,2420
1783350001122,289,35,15408,-32,-9,2442
1783350001124,376,-51,15675,-28,10,2397
1783350001126,230,-92,15750,6,-44,2473
1783350001128,66,251,15616,-5,-26,2376
1783350001130,407,-151,15565,-4,-22,2407
1783350001132,91,-93,15549,13,57,2441
1783350001134,226,180,15587,40,-5,2387
1783350001136,89,-168,15502,-13,27,2457
1783350001138,345,-177,15610,55,39,2429
1783350001140,198,-111,15581,12,3,2405
1783350001142,-230,-54,15446,35,-2,2434
1783350001144,93,28,15454,41,41,2408
1783350001146,201,-241,15576,45,74,2427
1783350001148,187,-144,15459,32,41,2382
1783350001150,365,-127,15393,18,25,2442
1783350001152,100,-148,15575,64,22,2458
1783350001154,100,-116,15392,62,55,2418
1783350001156,285,-271,15519,10,19,2388
1783350001158,103,-146,15318,27,24,2465
1783350001160,115,-205,15384,20,27,2459
1783350001162,233,-324,15234,26,8,2420
1783350001164,190,-272,15433,46,23,2404
1783350001166,60,-150,15407,38,-15,2453
1783350001168,466,19,15353,71,-30,2461
1783350001170,339,-128,15361,49,75,2464
1783350001172,369,-178,15353,54,99,2441
1783350001174,85,34,15411,-16,25,2422
1783350001176,309,-103,15367,46,-17,2428
1783350001178,111,-235,15399,10,64,2455
1783350001180,297,64,15204,33,47,2489
1783350001182,-13,-175,15712,59,71,2460
1783350001184,343,-35,15551,43,64,2385
1783350001186,19,-132,15366,54,78,2439
1783350001188,145,-136,15284,41,92,2487
1783350001190,314,-344,15256,38,56,2433
1783350001192,44,63,15155,54,29,2439
1783350001194,174,-61,15440,58,71,2424
1783350001196,195,-70,15372,30,12,2457
1783350001198,148,-219,15325,45,38,2418
1783350001200,83,-222,15412,40,26,2446
1783350001202,161,-12,15280,61,-10,2439
1783350001204,120,-87,15273,4,15,2429
1783350001206,208,-129,15177,93,58,2419
1783350001208,221,-122,15417,86,38,2414
1783350001210,-3,60,15275,79,78,2415
1783350001212,377,-241,15440,49,30,2461
1783350001214,111,-175,15108,91,42,2448
1783350001216,182,-80,15222,96,38,2489
1783350001218,313,-138,15286,80,5,2421
1783350001220,177,-220,15125,78,25,2468
1783350001222,245,-158,15269,26,58,2431
1783350001224,205,-174,15188,21,11,2402
1783350001226,214,-221,15245,73,43,2478
1783350001228,232,-112,15321,65,66,2456
1783350001230,7,-149,15254,97,36,2445
1783350001232,107,-152,15208,77,34,2459
1783350001234,399,-278,15240,125,40,2454
1783350001236,95,-267,15123,61,20,2468
1783350001238,206,-176,15305,81,19,2462
1783350001240,98,156,14861,35,69,2398
1783350001242,244,-185,15047,116,-16,2495
1783350001244,-19,-73,15242,117,55,2428
1783350001246,165,-131,15282,106,58,2458
1783350001248,88,71,14935,84,5,2481
1783350001250,463,56,15145,96,64,2441
1783350001252,140,-241,15260,72,73,2464
1783350001254,189,73,15043,100,90,2487
1783350001256,286,26,15189,59,58,2419
1783350001258,195,-179,14952,48,11,2465
1783350001260,220,-77,15198,78,83,2472
1783350001262,-30,-81,15148,108,83,2471
1783350001264,165,-169,14952,82,54,2447
1783350001266,73,99,15182,101,52,2420
1783350001268,373,-112,15111,80,33,2466
1783350001270,341,-38,14900,85,92,2488
1783350001272,163,42,15003,101,58,2460
1783350001274,176,-266,15044,91,21,2433
1783350001276,98,-257,14859,113,116,2480
1783350001278,126,-30,14957,102,9,2509
1783350001280,225,-73,15017,45,36,2469
1783350001282,-43,-184,14935,16,48,2501
1783350001284,221,-71,14969,99,41,2435
1783350001286,345,52,15087,103,122,2453
1783350001288,238,-85,14788,116,11,2469
1783350001290,258,-43,14912,79,-12,2427
1783350001292,349,-101,14984,80,123,2456
1783350001294,-81,-136,15002,76,70,2477
1783350001296,-10,-69,15170,92,88,2418
1783350001298,197,106,14880,77,61,2443
1783350001300,167,-27,15205,78,41,2417
1783350001302,189,0,14839,62,74,2412
1783350001304,436,-175,15046,57,62,2533
1783350001306,168,-130,15008,157,49,2432
1783350001308,388,21,14829,122,26,2428
1783350001310,76,157,14862,85,42,2404
1783350001312,277,-137,15037,105,64,2457
1783350001314,110,-33,14805,70,84,2476
1783350001316,146,-322,15045,51,23,2410
1783350001318,127,-171,15041,78,-9,2419
1783350001320,370,62,14736,61,51,2476
1783350001322,-57,-119,14881,65,102,2417
1783350001324,289,-77,14860,34,32,2484
1783350001326,1,-208,14854,61,53,2428
1783350001328,-43,-109,14765,87,61,2493
1783350001330,-115,-76,14931,111,85,2500
1783350001332,293,-47,14817,-14,77,2500
1783350001334,222,131,14631,57,110,2527
1783350001336,-102,-279,14621,91,53,2449
1783350001338,77,158,14484,90,73,2501
1783350001340,147,89,14879,103,60,2446
1783350001342,-20,-113,14871,58,80,2465
1783350001344,197,-41,14943,52,55,2446
1783350001346,198,-190,14795,47,35,2485
1783350001348,32,-81,14752,53,81,2441
1783350001350,-45,52,14565,35,58,2475
1783350001352,215,-128,14604,61,37,2490
1783350001354,431,-76,14542,53,66,2462
1783350001356,-37,-15,14720,122,5,2422
1783350001358,115,94,14741,52,36,2440
1783350001360,271,-26,14470,97,23,2384
1783350001362,75,-188,14450,37,-1,2479
1783350001364,109,-24,14800,38,59,2497
1783350001366,64,-129,14692,35,11,2469
1783350001368,-85,16,14772,47,9,2424
1783350001370,231,-168,14513,-1,22,2493
1783350001372,39,158,14586,77,43,2433
1783350001374,157,-155,14536,47,71,2459
1783350001376,19,-55,14783,95,115,2458
1783350001378,4,53,14487,55,44,2516
1783350001380,304,63,14635,92,53,2486
1783350001382,148,153,14550,27,64,2497
1783350001384,236,-38,14490,37,19,2491
1783350001386,53,287,14463,76,32,2433
1783350001388,103,-279,14627,69,-3,2453
1783350001390,239,39,14770,19,8,2450
1783350001392,93,-127,14391,74,0,2435
1783350001394,-107,-127,14433,86,60,2390
1783350001396,-137,-95,14591,14,9,2433
1783350001398,349,-104,14412,-23,65,2425
1783350001400,-163,-42,14631,86,30,2393
1783350001402,-185,35,14657,65,55,2451
1783350001404,138,-108,14466,22,46,2417
1783350001406,-128,-53,14475,33,31,2414
1783350001408,196,-186,14386,15,12,2438
1783350001410,-18,-134,14370,8,26,2440
1783350001412,116,114,14347,26,29,2385
1783350001414,404,-83,14343,52,44,2436
1783350001416,179,-180,14400,48,19,2479
1783350001418,-2,151,14312,28,19,2456
1783350001420,109,-8,14326,46,48,2421
1783350001422,16,9,14501,8,57,2449
1783350001424,289,-33,14381,16,37,2376
1783350001426,158,-72,14295,16,9,2441
1783350001428,168,29,14332,-4,-10,2431
1783350001430,-38,-57,14713,-2,-21,2465
1783350001432,84,-124,14507,26,44,2479
1783350001434,-61,-39,14466,9,92,2447
1783350001436,210,19,14274,-7,16,2458
1783350001438,330,129,14221,-6,13,2493
1783350001440,227,101,14452,8,54,2413
1783350001442,-33,107,14456,25,25,2361
1783350001444,-26,14,14544,10,14,2414
1783350001446,84,123,14678,-45,-69,2465
1783350001448,34,-9,14337,12,42,2423
1783350001450,82,72,14305,15,7,2437
1783350001452,-25,145,14367,0,49,2501
1783350001454,-57,-39,14319,-57,-81,2408
1783350001456,-110,76,14239,4,31,2408
1783350001458,210,156,14286,-3,43,2455
1783350001460,-102,248,14293,-13,-34,2412
1783350001462,-47,-30,14507,-44,-4,2446
1783350001464,-170,21,14176,34,48,2425
1783350001466,23,-149,14385,-31,25,2417
1783350001468,-164,198,14294,-16,23,2448
1783350001470,246,-105,14376,-78,-63,2459
1783350001472,169,155,14331,-11,34,2467
1783350001474,-152,166,13929,-14,22,2425
1783350001476,-22,84,14180,-30,-9,2424
1783350001478,-64,120,14310,-24,5,2399
1783350001480,21,-26,14276,0,42,2443
1783350001482,136,65,14360,-80,34,2472
1783350001484,246,151,14335,-42,34,2433
1783350001486,142,-53,14165,-51,-80,2447
1783350001488,256,-101,14286,-3,-8,2425
1783350001490,148,82,14186,-41,-2,2359
1783350001492,-6,-24,14324,0,10,2441
1783350001494,174,31,14127,-53,-19,2426
1783350001496,-83,-58,14042,-1,-31,2418
1783350001498,193,94,14114,-41,14,2403
1783350001500,175,180,14284,-55,-19,2406
1783350001502,123,150,14079,8,-42,2403
1783350001504,-187,40,14148,-53,-86,2391
1783350001506,-89,122,14342,-29,10,2343
1783350001508,48,163,14039,-79,-15,2466
1783350001510,-196,277,14191,-62,57,2394
1783350001512,16,28,14177,-62,5,2466
1783350001514,112,247,14323,-23,-7,2429
1783350001516,74,230,14216,2,-43,2449
1783350001518,192,82,14110,-24,-47,2459
1783350001520,-73,163,14108,-94,-41,2431
1783350001522,-8,105,14103,-43,-13,2400
1783350001524,46,-3,14065,-61,34,2451
1783350001526,14,67,14134,-51,-51,2401
1783350001528,-126,110,13911,-70,-86,2365
1783350001530,-134,167,14151,-114,-21,2430
1783350001532,-54,-41,14053,-84,-21,2440
1783350001534,185,380,14048,-67,13,2360
1783350001536,-54,160,14154,-31,-10,2394
1783350001538,-29,133,14065,-34,10,2423
1783350001540,231,29,14065,-84,-7,2364
1783350001542,-69,179,14179,-9,44,2395
1783350001544,21,89,14205,-81,-57,2404
1783350001546,-244,-62,13925,-85,-38,2404
1783350001548,6,165,14131,-92,-72,2387
1783350001550,-16,-126,13913,-85,-48,2325
1783350001552,-38,67,14070,-38,2,2434
1783350001554,195,-58,13845,-9,60,2407
1783350001556,-320,139,13930,-114,-26,2399
1783350001558,61,164,14133,-53,-4,2393
1783350001560,-72,36,14034,-106,-51,2331
1783350001562,95,22,13953,-125,-29,2429
1783350001564,-46,33,13921,-113,-31,2375
1783350001566,-103,-76,13855,-121,-5,2380
1783350001568,0,-140,13905,-46,-13,2405
1783350001570,-213,71,13925,-41,-22,2377
1783350001572,-168,109,14051,-79,-13,2402
1783350001574,-100,-100,13901,-66,-8,2347
1783350001576,-144,26,14030,-52,-66,2422
1783350001578,-227,71,13744,-98,-59,2394
1783350001580,13,7,13809,-23,-42,2375
1783350001582,-151,182,13905,-54,-18,2331
1783350001584,41,50,13664,-26,-39,2371
1783350001586,-44,-27,13842,-62,-21,2352
1783350001588,-67,243,13927,-41,-26,2370
1783350001590,-61,-104,14015,-120,-15,2442
1783350001592,-112,106,13690,-57,0,2369
1783350001594,321,109,13706,-136,-21,2340
1783350001596,27,159,13625,-106,-14,2326
1783350001598,2,14,13761,-74,-100,2329
1783350001600,-280,114,13864,-44,-67,2383
1783350001602,166,215,13886,-166,-99,2349
1783350001604,190,23,13902,-43,-1,2333
1783350001606,5,-120,13774,-86,-57,2381
1783350001608,-169,255,14053,-129,-33,2337
1783350001610,-26,57,13840,-124,-27,2335
1783350001612,21,43,13654,-81,-60,2330
1783350001614,78,136,13811,-73,-29,2351
1783350001616,-60,139,13791,-42,-89,2340
1783350001618,71,-82,13825,-85,-61,2374
1783350001620,197,276,13619,-116,-67,2328
1783350001622,-138,-25,13805,-72,-105,2415
1783350001624,-117,-63,13765,-16,-23,2381
1783350001626,-141,187,13735,-75,-57,2305
1783350001628,108,90,13618,-61,-66,2384
1783350001630,-249,-233,13789,-1,-39,2388
1783350001632,-271,138,13694,-92,-68,2333
1783350001634,229,-127,13921,-87,4,2331
1783350001636,-62,235,13813,-114,-69,2346
1783350001638,-100,213,13837,-55,-54,2363
1783350001640,34,31,13795,-85,-65,2316
1783350001642,104,-105,13776,-82,-31,2326
1783350001644,-145,212,13680,-15,-42,2323
1783350001646,28,136,13755,-111,1,2327
1783350001648,70,233,13624,-51,-40,2319
1783350001650,35,86,13698,-28,-44,2345
1783350001652,9,174,13530,-42,-46,2386
1783350001654,143,23,13666,-86,-50,2379
1783350001656,21,159,13730,-61,-49,2354
1783350001658,-36,119,13604,-68,-54,2377
1783350001660,-19,-29,13652,-94,-46,2296
1783350001662,31,240,13739,-88,-91,2352
1783350001664,257,-8,13752,-95,-81,2323
1783350001666,39,155,13603,-65,-78,2327
1783350001668,-102,-7,13624,-67,-50,2228
1783350001670,-158,191,13513,-64,-73,2297
1783350001672,-12,-146,13481,-87,-60,2301
1783350001674,-359,-92,13655,-59,-14,2373
1783350001676,-274,115,13763,-102,-135,2327
1783350001678,-39,193,13502,-4,-45,2302
1783350001680,-162,15,13558,-70,-21,2340
1783350001682,-398,94,13574,-41,-103,2316
1783350001684,-27,81,13496,-80,-38,2294
1783350001686,2,23,13611,-51,-27,2251
1783350001688,86,76,13625,-69,-25,2279
1783350001690,-145,155,13480,-92,-46,2304
1783350001692,88,182,13574,-75,-13,2329
1783350001694,-216,177,13567,-55,-56,2255
1783350001696,-177,351,13415,-69,-78,2277
1783350001698,-126,-29,13361,-65,-86,2255
1783350001700,-237,230,13567,-21,-58,2320
1783350001702,162,171,13503,-23,-29,2261
1783350001704,-283,103,13388,-23,-53,2301
1783350001706,-27,249,13327,-37,-13,2339
1783350001708,134,129,13455,-41,-60,2314
1783350001710,-220,54,13432,-30,-56,2266
1783350001712,-27,35,13416,-20,-55,2324
1783350001714,-325,170,13440,12,-23,2312
1783350001716,-80,2,13401,-82,-84,2326
1783350001718,-218,21,13289,-23,-16,2286
1783350001720,-19,196,13422,-25,-17,2251
1783350001722,-114,-12,13189,15,-89,2295
1783350001724,239,-36,13449,14,-11,2321
1783350001726,7,297,13318,-28,-55,2251
1783350001728,-85,74,13359,-36,-60,2303
1783350001730,-218,80,13372,-11,-16,2298
1783350001732,86,178,13276,-24,-31,2319
1783350001734,-239,-67,13471,6,-83,2263
1783350001736,-192,37,13470,-9,-23,2223
1783350001738,97,177,13412,-36,-81,2261
1783350001740,-150,87,13376,-1,-33,2274
1783350001742,34,-86,13280,-75,-39,2236
1783350001744,-77,148,13331,-36,-41,2307
1783350001746,-175,71,13421,-26,-8,2242
1783350001748,-15,-119,13259,-8,-7,2261
1783350001750,-68,239,13329,-49,-74,2240
1783350001752,-312,181,13341,-21,-11,2272
1783350001754,-157,-5,13225,-17,-82,2248
1783350001756,-315,109,13258,-12,-38,2315
1783350001758,-348,135,13318,-29,-93,2243
1783350001760,-20,317,13142,-1,-20,2285
1783350001762,-8,-84,13167,5,24,2216
1783350001764,-219,236,13262,13,-28,2271
1783350001766,-233,76,13327,22,-93,2329
1783350001768,-50,413,13346,-7,-46,2221
1783350001770,-54,-3,13244,78,-24,2219
1783350001772,-100,-60,13206,28,-77,2241
1783350001774,-223,188,13278,-11,-2,2243
1783350001776,-89,334,13317,17,-36,2237
1783350001778,-189,362,13158,-2,-14,2215
1783350001780,-190,290,13261,12,5,2257
1783350001782,5,213,13222,30,-34,2248
1783350001784,-158,192,13114,4,-47,2224
1783350001786,-312,29,13299,6,-20,2246
1783350001788,-126,23,13223,-16,15,2300
1783350001790,-270,94,13260,47,-49,2215
1783350001792,-245,182,13127,0,-69,2264
1783350001794,-274,211,13181,10,-20,2188
1783350001796,-127,54,13201,23,-76,2216
1783350001798,-160,94,13222,34,-59,2230
1783350001800,-198,225,13163,56,-61,2230
1783350001802,-58,225,13201,43,-9,2217
1783350001804,-120,134,12934,51,23,2213
1783350001806,-159,273,13039,30,5,2282
1783350001808,-78,-126,13104,45,5,2211
1783350001810,-75,91,13191,51,-38,2208
1783350001812,13,41,12927,87,-36,2209
1783350001814,54,-19,13167,87,14,2227
1783350001816,-165,-51,13194,26,-36,2195
1783350001818,-38,-39,13063,56,-52,2228
1783350001820,41,12,13165,46,-14,2198
1783350001822,-177,125,13126,37,-35,2242
1783350001824,-186,188,12968,39,-28,2184
1783350001826,-131,175,13111,46,-11,2183
1783350001828,-115,-34,13031,53,-9,2212
1783350001830,-146,209,13045,56,-38,2189
1783350001832,-83,59,13012,45,42,2182
1783350001834,-226,-1,13195,91,-7,2164
1783350001836,-53,170,12858,74,-5,2182
1783350001838,-61,23,12946,61,26,2178
1783350001840,-238,158,13069,16,-29,2213
1783350001842,-135,-14,12987,39,-25,2208
1783350001844,-211,183,13023,28,35,2165
1783350001846,-347,183,12736,72,-42,2187
1783350001848,-402,39,13023,89,-33,2184
1783350001850,-114,-13,13066,80,47,2193
1783350001852,-206,109,13046,55,-9,2182
1783350001854,-35,68,13007,75,-12,2139
1783350001856,-288,155,12914,80,-21,2127
1783350001858,-155,121,12905,64,-8,2142
1783350001860,-105,249,13039,103,17,2243
1783350001862,-142,79,12894,84,35,2130
1783350001864,-317,152,12676,57,-6,2193
1783350001866,-251,308,12850,104,-21,2140
1783350001868,34,-105,12921,47,8,2112
1783350001870,-40,125,12865,103,28,2191
1783350001872,24,235,12969,104,34,2198
1783350001874,-300,-6,13079,115,43,2167
1783350001876,-405,-28,12762,109,30,2122
1783350001878,-47,14,13011,58,-12,2159
1783350001880,-89,-33,12822,83,-3,2111
1783350001882,-63,97,12865,88,-33,2145
1783350001884,-67,-4,13047,49,-21,2140
1783350001886,-13,-83,12823,94,-6,2111
1783350001888,-189,95,12692,80,37,2115
1783350001890,-35,250,12729,86,-3,2124
1783350001892,-246,145,12900,32,-6,2157
1783350001894,-192,13,12991,54,-32,2151
1783350001896,-221,-25,12928,54,-16,2133
1783350001898,-336,46,12744,58,31,2178
1783350001900,-198,131,12812,62,56,2116
1783350001902,68,-58,12778,55,-1,2096
1783350001904,-39,125,12878,130,29,2097
1783350001906,-303,17,12864,40,7,2103
1783350001908,-32,112,12941,89,27,2127
1783350001910,-258,-127,12838,61,-100,2176
1783350001912,-356,321,12972,91,55,2065
1783350001914,-139,139,12796,110,-25,2179
1783350001916,-215,233,12727,65,25,2079
1783350001918,-195,12,12708,75,34,2105
1783350001920,-104,-12,12705,96,30,2117
1783350001922,-234,126,12578,68,-47,2148
1783350001924,-199,44,12710,113,7,2081
1783350001926,152,-16,12835,52,40,2125
1783350001928,-152,350,12638,85,7,2148
1783350001930,-192,-9,12897,97,11,2065
1783350001932,-22,106,12811,56,12,2121
1783350001934,-198,144,12594,92,-5,2084
1783350001936,-27,-65,12813,25,-25,2064
1783350001938,-269,169,12541,88,2,2049
1783350001940,-491,10,12842,102,-25,2103
1783350001942,-194,259,12546,68,30,2137
1783350001944,-212,-27,12814,63,56,2109
1783350001946,-87,180,12607,77,-54,2138
1783350001948,134,98,12759,93,77,2070
1783350001950,-259,-75,12551,84,22,2085
1783350001952,-196,119,12556,111,8,2126
1783350001954,-294,-120,12841,82,-19,2104
1783350001956,-202,-11,12485,38,57,2118
1783350001958,-44,107,12549,93,83,2082
1783350001960,-174,183,12638,56,-17,2095
1783350001962,-137,33,12533,48,42,2140
1783350001964,-312,-69,12679,98,24,2064
1783350001966,-319,-312,12704,64,47,2150
1783350001968,-269,-44,12649,84,39,2036
1783350001970,162,66,12496,44,63,2101
1783350001972,-278,206,12680,24,52,2075
1783350001974,-16,-37,12637,119,44,2071
1783350001976,47,71,12563,74,69,2066
1783350001978,-228,-10,12631,95,77,2046
1783350001980,-318,97,12575,65,21,2028
1783350001982,-536,229,12575,23,72,2026
1783350001984,-297,237,12613,60,39,2052
1783350001986,-377,-38,12395,80,30,2086
1783350001988,-406,287,12743,73,16,2024
1783350001990,-124,102,12429,54,67,2080
1783350001992,-176,129,12439,77,32,2079
1783350001994,-26,-72,12571,55,51,2055
1783350001996,-82,48,12406,52,68,2052
1783350001998,-118,-60,12495,89,20,2030
1783350002000,-17,-23,1880,-31,49,1955
1783350002002,45,-6,1844,-12,43,1941
1783350002004,-23,5,1885,-26,46,1979
1783350002006,-52,76,1819,-12,24,1905
1783350002008,-9,16,1869,24,18,1972
1783350002010,7,24,1854,-11,49,1948
1783350002012,48,64,1877,5,14,1958
1783350002014,-7,69,1880,-15,19,1957
1783350002016,-12,-27,1843,-3,12,1961
1783350002018,42,33,1886,-12,-2,1926
1783350002020,-9,31,1859,-11,16,1965
1783350002022,-25,4,1841,-1,25,1949
1783350002024,-16,-33,1879,1,14,1931
1783350002026,5,21,1851,5,10,1926
1783350002028,-13,5,1868,-13,13,1942
1783350002030,-2,-7,1830,0,10,1926
1783350002032,8,70,1856,11,54,1909
1783350002034,-26,40,1879,32,22,1921
1783350002036,24,18,1844,-3,18,1912
1783350002038,36,36,1915,3,17,1927
1783350002040,-42,29,1906,-2,35,1947
1783350002042,38,33,1873,-12,22,1915
1783350002044,-63,48,1837,8,17,1928
1783350002046,50,5,1909,27,41,1927
1783350002048,-98,12,1863,1,19,1901
1783350002049,20,43,1815,19,13,1938
1783350002052,9,63,1867,32,37,1923
1783350002053,-100,21,1856,10,3,1912
1783350002056,-11,79,1849,22,10,1884
1783350002057,-3,51,1868,9,20,1921
1783350002060,-59,26,1870,-18,33,1903
1783350002061,-38,-2,1819,-13,34,1903
1783350002064,70,52,1867,18,37,1900
1783350002065,-10,-15,1847,8,35,1905
1783350002068,7,21,1858,4,21,1874
1783350002069,27,13,1893,12,8,1906
1783350002072,-40,2,1883,-2,33,1917
1783350002073,9,59,1835,7,43,1904
1783350002076,-12,-37,1840,10,19,1894
1783350002077,-2,72,1884,12,23,1879
1783350002080,-54,55,1866,30,-2,1894
1783350002081,34,47,1839,-11,38,1890
1783350002084,6,-18,1869,36,25,1879
1783350002085,-42,-27,1854,-6,9,1888
1783350002088,-35,-21,1876,14,26,1887
1783350002089,6,12,1902,12,19,1872
1783350002092,23,54,1853,20,44,1863
1783350002093,42,19,1881,42,5,1868
1783350002096,-55,38,1828,24,30,1860
1783350002098,25,35,1783,16,-4,1875
1783350002100,18,-6,1857,-17,-4,1864
1783350002102,3,42,1873,32,2,1857
1783350002104,52,108,1849,57,55,1839
1783350002106,-31,60,1864,22,43,1852
1783350002108,43,30,1845,11,4,1862
1783350002110,-10,57,1923,26,13,1861
1783350002112,5,-7,1853,-16,22,1840
1783350002114,63,78,1896,30,24,1820
1783350002116,-1,4,1889,53,-9,1866
1783350002118,21,16,1880,20,32,1842
1783350002120,0,1,1859,14,13,1838
1783350002122,35,52,1860,56,28,1858
1783350002124,-17,37,1843,7,6,1865
1783350002126,-45,11,1830,33,42,1868
1783350002128,51,1,1880,10,6,1858
1783350002130,29,38,1850,11,32,1864
1783350002132,31,-31,1873,31,61,1831
1783350002134,-2,31,1878,22,20,1842
1783350002136,-52,-29,1852,12,36,1823
1783350002138,-75,41,1828,48,20,1849
1783350002140,29,32,1870,36,20,1807
1783350002142,-1,61,1899,6,17,1832
1783350002144,18,42,1813,18,8,1850
1783350002146,-9,-14,1930,15,36,1817
1783350002148,7,20,1900,18,28,1840
1783350002150,21,6,1847,21,20,1821
1783350002152,-18,36,1928,21,11,1834
1783350002154,15,14,1932,40,21,1815
1783350002156,-35,24,1860,55,47,1812
1783350002158,74,45,1870,28,21,1818
1783350002160,38,15,1889,34,11,1794
1783350002162,12,43,1882,19,20,1837
1783350002164,17,-16,1841,31,14,1768
1783350002166,90,-38,1855,48,11,1832
1783350002168,-9,98,1855,8,33,1829
1783350002170,4,-13,1899,23,38,1821
1783350002172,38,0,1859,0,33,1793
1783350002174,15,43,1835,35,31,1802
1783350002176,6,0,1884,22,35,1800
1783350002178,13,-28,1780,6,28,1795
1783350002180,-24,13,1859,15,-1,1792
1783350002182,19,25,1876,20,-5,1792
1783350002184,3,9,1822,42,7,1781
1783350002186,-63,-44,1835,10,-1,1780
1783350002188,39,11,1818,27,-6,1769
1783350002190,55,32,1826,5,10,1776
1783350002192,36,30,1837,13,27,1827
1783350002194,2,44,1829,35,57,1810
1783350002196,27,-35,1847,12,0,1789
1783350002198,69,26,1806,9,-4,1780
1783350002200,2,-7,1820,42,12,1779
1783350002202,40,37,1895,17,4,1738
1783350002204,-6,3,1848,27,23,1768
1783350002206,-3,29,1843,20,5,1752
1783350002208,-64,-35,1911,23,9,1776
1783350002210,-2,5,1932,44,34,1784
1783350002212,56,-62,1854,27,19,1791
1783350002214,46,-64,1803,21,2,1760
1783350002216,-54,0,1858,56,22,1747
1783350002218,21,63,1837,43,43,1796
1783350002220,41,21,1903,40,2,1771
1783350002222,8,94,1806,39,19,1744
1783350002224,-20,-6,1871,39,0,1744
1783350002226,19,-3,1827,63,22,1760
1783350002228,56,19,1872,20,15,1747
1783350002230,70,43,1872,28,3,1756
1783350002232,42,21,1859,35,9,1760
1783350002234,10,5,1893,41,8,1756
1783350002236,-19,73,1900,24,19,1767
1783350002238,8,-11,1883,18,9,1748
1783350002240,-21,10,1918,54,6,1761
1783350002242,43,-1,1896,32,12,1733
1783350002244,62,19,1879,39,30,1740
1783350002246,39,40,1892,18,15,1742
1783350002248,4,21,1799,64,14,1703
1783350002250,36,93,1892,37,16,1726
1783350002252,47,-34,1864,40,25,1720
1783350002254,-38,57,1883,24,9,1734
1783350002256,-13,50,1806,57,10,1724
1783350002258,42,26,1889,23,30,1719
1783350002260,32,-57,1879,23,7,1729
1783350002262,-15,44,1841,9,17,1714
1783350002264,26,22,1938,41,43,1723
1783350002266,19,69,1860,47,17,1715
1783350002268,-29,34,1866,25,5,1712
1783350002270,51,38,1869,11,12,1713
1783350002272,61,48,1839,30,45,1718
1783350002274,-30,11,1842,19,19,1748
1783350002276,4,40,1896,31,42,1711
1783350002278,12,0,1905,40,3,1718
1783350002280,71,7,1829,23,9,1712
1783350002282,40,7,1895,25,25,1694
1783350002284,-13,6,1882,16,-8,1703
1783350002286,20,-25,1890,10,18,1713
1783350002288,-1,29,1813,31,-4,1703
1783350002290,30,16,1825,65,22,1710
1783350002292,40,42,1851,0,5,1704
1783350002294,-26,-5,1878,29,19,1685
1783350002296,16,17,1844,41,-20,1670
1783350002298,85,-17,1846,40,13,1713
1783350002300,20,42,1820,30,20,1693
1783350002302,30,24,1844,23,16,1681
1783350002304,4,-8,1890,49,13,1678
1783350002306,63,-3,1868,52,31,1685
1783350002308,34,28,1831,14,18,1677
1783350002310,29,-22,1911,15,20,1692
1783350002312,77,35,1840,42,16,1710
1783350002314,1,-22,1885,39,-3,1673
1783350002316,21,-1,1863,25,-3,1672
1783350002318,21,-1,1882,42,3,1685
1783350002320,1,18,1818,34,-15,1696
1783350002322,-19,-28,1831,41,5,1689
1783350002324,1,75,1902,45,-3,1694
1783350002326,-10,25,1900,30,17,1642
1783350002328,63,6,1870,22,-12,1686
1783350002330,43,51,1889,12,36,1665
1783350002332,60,-8,1835,11,-22,1643
1783350002334,64,57,1888,14,-17,1669
1783350002336,-56,-3,1825,-10,8,1696
1783350002338,11,-44,1863,38,-6,1651
1783350002340,110,-9,1839,3,-3,1654
1783350002342,-16,29,1834,37,-9,1652
1783350002344,68,-41,1849,56,-12,1656
1783350002346,9,8,1890,31,-5,1666
1783350002348,21,-17,1869,59,-6,1642
1783350002350,35,8,1864,49,-25,1651
1783350002352,-2,46,1924,25,33,1650
1783350002354,34,12,1873,24,2,1673
1783350002356,49,14,1889,53,33,1659
1783350002358,12,-29,1845,27,27,1658
1783350002360,75,-10,1831,20,1,1648
1783350002362,-17,11,1864,40,15,1650
1783350002364,57,-24,1875,58,-21,1651
1783350002366,47,2,1896,38,-3,1659
1783350002368,93,17,1875,44,18,1635
1783350002370,37,-44,1873,15,-18,1661
1783350002372,20,-5,1921,-8,-18,1623
1783350002374,-21,-40,1810,23,3,1634
1783350002376,37,25,1826,38,26,1607
1783350002378,60,42,1874,34,-10,1606
1783350002380,68,6,1878,31,5,1606
1783350002382,19,42,1861,28,-24,1633
1783350002384,77,84,1883,35,11,1632
1783350002386,-17,43,1833,49,24,1605
1783350002388,-18,7,1865,47,11,1600
1783350002390,53,-57,1841,43,32,1624
1783350002392,30,-8,1892,37,-5,1625
1783350002394,-21,28,1883,25,3,1613
1783350002396,38,-30,1836,45,17,1579
1783350002398,68,3,1891,32,-2,1639
1783350002400,10,-58,1849,32,0,1621
1783350002402,12,-78,1887,56,3,1613
1783350002404,5,-8,1894,16,-22,1577
1783350002406,28,-9,1853,12,-8,1609
1783350002408,37,-10,1903,22,15,1608
1783350002410,53,-14,1919,19,-29,1589
1783350002412,50,-13,1840,43,-8,1608
1783350002414,-18,38,1884,39,-12,1578
1783350002416,11,-4,1859,15,4,1590
1783350002418,12,-48,1841,42,10,1594
1783350002420,55,-10,1825,10,12,1587
1783350002422,-12,4,1870,25,4,1612
1783350002424,36,107,1828,21,6,1576
1783350002426,59,-76,1824,10,18,1593
1783350002428,0,10,1821,10,-2,1589
1783350002430,79,6,1824,38,-10,1583
1783350002432,-1,52,1837,64,-10,1588
1783350002434,67,-6,1801,16,-24,1589
1783350002436,17,-23,1863,31,15,1606
1783350002438,156,-17,1877,22,33,1568
1783350002440,36,-19,1863,17,19,1564
1783350002442,61,47,1863,58,0,1577
1783350002444,-37,22,1830,35,21,1557
1783350002446,-7,-39,1863,18,3,1577
1783350002448,8,22,1840,-10,-8,1596
1783350002450,1,29,1789,34,-13,1567
1783350002452,-13,15,1878,25,-23,1579
1783350002454,15,-3,1852,30,0,1571
1783350002456,34,-7,1878,41,-39,1575
1783350002458,36,0,1835,29,15,1582
1783350002460,18,-25,1891,21,-26,1533
1783350002462,74,-47,1899,4,-9,1545
1783350002464,67,12,1863,35,-3,1556
1783350002466,75,-14,1871,21,9,1568
1783350002468,25,23,1859,41,-7,1566
1783350002470,20,-24,1810,28,-1,1585
1783350002472,-12,-25,1843,32,7,1534
1783350002474,61,9,1819,-16,-21,1551
1783350002476,30,11,1859,14,-11,1564
1783350002478,17,31,1875,13,3,1587
1783350002480,24,-65,1928,6,-9,1555
1783350002482,62,-15,1889,34,-16,1541
1783350002484,73,2,1869,20,-19,1541
1783350002486,76,30,1933,23,-22,1539
1783350002488,55,42,1868,7,-1,1561
1783350002490,37,65,1806,13,-44,1512
1783350002492,51,7,1874,42,-33,1523
1783350002494,-12,-32,1850,11,0,1517
1783350002496,14,-78,1878,11,-3,1535
1783350002498,-62,-37,1848,22,8,1519
1783350002500,18,-10,1828,12,0,1552
1783350002502,13,0,1869,13,4,1488
1783350002504,-29,-9,1848,36,-4,1548
1783350002506,25,9,1800,20,-20,1542
1783350002508,-7,42,1857,24,4,1512
1783350002510,12,-3,1841,24,-3,1509
1783350002512,41,14,1874,3,-31,1524
1783350002514,23,-40,1875,6,-18,1503
1783350002516,18,15,1877,15,-10,1507
1783350002518,21,26,1814,19,-3,1505
1783350002520,53,13,1873,26,-19,1505
1783350002522,31,41,1852,8,-12,1493
1783350002524,38,12,1894,24,-10,1525
1783350002526,75,-11,1883,33,-2,1517
1783350002528,-11,9,1883,5,-19,1506
1783350002530,90,0,1919,10,-10,1512
1783350002532,21,3,1868,32,-21,1479
1783350002534,45,-46,1852,-2,-20,1513
1783350002536,45,22,1901,11,-42,1506
1783350002538,56,-11,1908,12,-10,1466
1783350002540,15,52,1875,18,2,1509
1783350002542,38,7,1903,8,-14,1506
1783350002544,25,-6,1867,24,-23,1505
1783350002546,31,24,1884,12,-12,1514
1783350002548,8,25,1865,11,-43,1503
1783350002550,14,41,1889,8,-10,1504
1783350002552,-6,-43,1813,21,15,1479
1783350002554,18,6,1878,15,-21,1497
1783350002556,34,96,1846,5,-18,1487
1783350002558,66,4,1860,4,-2,1504
1783350002560,28,-23,1859,16,-23,1497
1783350002562,46,8,1879,-1,-2,1492
1783350002564,-2,-24,1832,2,-8,1486
1783350002566,120,-30,1858,4,16,1450
1783350002568,42,-9,1839,2,-28,1490
1783350002570,36,15,1905,-11,-19,1466
1783350002572,73,-22,1893,-8,18,1458
1783350002574,55,-12,1876,14,-25,1457
1783350002576,15,-60,1878,5,-28,1487
1783350002578,17,-31,1917,-11,-16,1497
1783350002580,-3,18,1921,-16,-18,1458
1783350002582,2,-3,1852,18,-14,1432
1783350002584,27,-76,1898,7,-51,1457
1783350002586,59,42,1912,7,-6,1450
1783350002588,35,-5,1882,29,15,1487
1783350002590,15,-38,1873,-19,-53,1460
1783350002592,45,38,1914,1,-32,1446
1783350002594,14,-19,1830,-11,-32,1469
1783350002596,37,-49,1830,0,-25,1441
1783350002598,47,37,1902,22,8,1456
1783350002600,42,-50,1908,6,-23,1449
1783350002602,24,41,1912,2,0,1449
1783350002604,40,-6,1915,3,-23,1407
1783350002606,83,-52,1856,-2,-9,1443
1783350002608,-16,-13,1826,-19,-42,1464
1783350002610,136,-22,1867,-3,-42,1448
1783350002612,77,-36,1875,-3,-35,1447
1783350002614,27,64,1877,-12,-23,1461
1783350002616,26,-61,1849,9,-18,1434
1783350002618,46,69,1938,9,-1,1440
1783350002620,20,-3,1851,3,-4,1443
1783350002622,74,2,1846,-3,-9,1434
1783350002624,78,-46,1896,3,-34,1417
1783350002626,25,9,1930,-8,-3,1412
1783350002628,18,-20,1850,11,3,1469
1783350002630,30,-18,1855,-3,-10,1417
1783350002632,58,3,1874,1,7,1422
1783350002634,71,-11,1877,-1,-38,1425
1783350002636,45,11,1868,-14,-15,1455
1783350002638,17,21,1881,19,-34,1426
1783350002640,79,52,1839,3,-38,1448
1783350002642,83,-15,1900,-11,-22,1437
1783350002644,-5,-17,1843,4,-14,1422
1783350002646,71,11,1865,34,5,1423
1783350002648,81,-52,1859,20,-24,1425
1783350002650,50,68,1837,12,-16,1415
1783350002652,87,-49,1851,18,-33,1403
1783350002654,64,-61,1864,-2,-64,1435
1783350002656,65,-39,1857,13,-29,1419
1783350002658,17,22,1877,13,5,1421
1783350002660,70,9,1884,-5,-20,1424
1783350002662,63,74,1886,-25,-19,1412
1783350002664,71,-49,1896,-39,-21,1427
1783350002666,91,17,1951,11,22,1428
1783350002668,18,-8,1854,24,-10,1429
1783350002670,93,15,1880,5,-41,1401
1783350002672,48,-26,1908,-10,-19,1412
1783350002674,49,-7,1893,11,-42,1384
1783350002676,21,-40,1862,-37,-1,1400
1783350002678,67,-17,1874,0,-14,1406
1783350002680,86,-22,1838,-10,-15,1396
1783350002682,60,11,1876,3,-8,1374
1783350002684,12,-18,1856,-31,-37,1379
1783350002686,51,-30,1846,-5,-34,1395
1783350002688,1,-14,1870,-12,-36,1398
1783350002690,47,-27,1835,-8,-32,1371
1783350002692,-3,-26,1919,22,-60,1414
1783350002694,15,-19,1832,-23,-3,1396
1783350002696,17,-9,1816,-18,-23,1379
1783350002698,48,-20,1865,-11,-18,1395
1783350002700,96,-58,1881,0,-45,1391
1783350002702,39,-21,1880,5,20,1367
1783350002704,6,-21,1852,-26,-57,1412
1783350002706,45,-41,1850,-23,-32,1389
1783350002708,44,-50,1836,-33,0,1368
1783350002710,98,21,1888,-19,-5,1407
1783350002712,95,-50,1825,4,-16,1385
1783350002714,51,-75,1871,-59,-10,1384
1783350002716,69,-29,1819,-23,-38,1375
1783350002718,79,-42,1877,-13,-39,1375
1783350002720,4,62,1876,3,-40,1386
1783350002722,35,-1,1882,-8,-27,1383
1783350002724,59,4,1793,-3,-36,1374
1783350002726,75,8,1844,-29,-33,1364
1783350002728,4,-11,1878,-30,1,1373
1783350002730,53,-14,1820,-41,-33,1371
1783350002732,12,21,1836,-19,-7,1362
1783350002734,50,-27,1907,-20,-53,1383
1783350002736,78,-43,1849,-32,11,1351
1783350002738,24,-17,1868,-30,-8,1363
1783350002740,28,-25,1948,-29,-21,1364
1783350002742,-10,-2,1844,-18,-48,1382
1783350002744,11,-19,1849,7,-32,1370
1783350002746,88,15,1862,-3,-36,1365
1783350002748,33,14,1824,-28,-35,1323
1783350002750,52,-68,1873,-13,-40,1334
1783350002752,26,-6,1835,-19,-15,1346
1783350002754,62,-6,1853,-14,-34,1361
1783350002756,51,10,1841,-27,-21,1346
1783350002758,72,10,1819,-20,-10,1323
1783350002760,77,-6,1921,-36,-23,1333
1783350002762,52,-53,1870,-16,-26,1343
1783350002764,3,7,1802,-18,-56,1352
1783350002766,15,12,1853,-1,-29,1310
1783350002768,21,9,1861,-14,-18,1360
1783350002770,44,-44,1918,-32,-31,1336
1783350002772,-4,-13,1893,-22,-4,1352
1783350002774,51,-35,1821,-21,-9,1369
1783350002776,4,-25,1869,-23,3,1343
1783350002778,51,-36,1863,-6,-46,1339
1783350002780,80,-46,1827,-32,-21,1346
1783350002782,4,-18,1853,-26,-40,1321
1783350002784,37,5,1880,-36,-14,1339
1783350002786,49,-52,1873,-17,-24,1314
1783350002788,38,-67,1893,-31,-59,1307
1783350002790,33,-8,1855,-33,-44,1311
1783350002792,-19,-9,1847,-19,2,1341
1783350002794,75,-8,1875,-22,7,1342
1783350002796,4,-42,1859,-17,-3,1342
1783350002798,53,20,1877,4,-25,1324
1783350002800,-58,-18,1859,11,-6,1332
1783350002802,49,50,1820,-29,-17,1317
1783350002804,24,-37,1856,-40,-21,1312
1783350002806,61,-40,1878,-27,-40,1313
1783350002808,61,19,1868,-44,-23,1306
1783350002810,81,49,1845,-52,-13,1308
1783350002812,76,18,1920,-22,-47,1345
1783350002814,-17,-103,1898,-30,-26,1302
1783350002816,85,-42,1884,-38,-9,1326
1783350002818,59,41,1757,-21,-9,1305
1783350002820,104,-58,1881,-53,-17,1312
1783350002822,22,13,1881,-20,-31,1295
1783350002824,40,-24,1849,-1,5,1314
1783350002826,35,-24,1867,-37,-31,1293
1783350002828,-8,2,1803,-40,-42,1290
1783350002830,-10,42,1895,-38,-13,1283
1783350002832,49,-72,1911,-37,-28,1316
1783350002834,51,12,1897,-21,-19,1296
1783350002836,52,-3,1830,-35,-31,1275
1783350002838,23,-23,1925,-24,-49,1296
1783350002840,56,-47,1902,-18,-23,1280
1783350002842,24,64,1873,-37,8,1285
1783350002844,33,-29,1859,-29,-14,1276
1783350002846,42,8,1863,-26,-43,1278
1783350002848,36,6,1860,-51,18,1263
1783350002850,40,4,1862,-58,-26,1310
1783350002852,51,10,1912,-51,-21,1267
1783350002854,6,-36,1815,-36,3,1276
1783350002856,8,17,1910,-30,-29,1289
1783350002858,111,-32,1866,-29,-26,1292
1783350002860,21,-6,1931,-31,-15,1262
1783350002862,121,-62,1828,-58,-48,1270
1783350002864,39,3,1833,-21,0,1306
1783350002866,48,-78,1861,-45,2,1247
1783350002868,34,-9,1880,-41,-31,1267
1783350002870,29,-29,1930,-24,3,1264
1783350002872,50,-10,1884,-39,-2,1264
1783350002874,54,64,1906,-55,-12,1277
1783350002876,26,-4,1932,-42,-32,1278
1783350002878,0,47,1874,-40,-20,1267
1783350002880,74,-3,1861,-23,-32,1239
1783350002882,78,4,1868,-26,-54,1258
1783350002884,32,-7,1850,-29,-39,1269
1783350002886,54,42,1870,-12,-16,1275
1783350002888,15,-14,1824,-50,-22,1234
1783350002890,68,2,1929,-19,-22,1244
1783350002892,-66,23,1881,-51,-25,1279
1783350002894,-28,-40,1836,-20,2,1250
1783350002896,58,-18,1866,-44,-22,1259
1783350002898,5,12,1839,-17,-35,1267
1783350002900,6,-34,1831,-25,-33,1225
1783350002902,23,-29,1836,-49,-6,1240
1783350002904,-10,-9,1875,-39,-51,1238
1783350002906,43,6,1874,-30,-9,1260
1783350002908,-33,-33,1853,-16,-21,1277
1783350002910,126,-62,1901,-35,-25,1246
1783350002912,-52,-74,1892,-45,-23,1248
1783350002914,50,-102,1849,-34,-31,1249
1783350002916,52,-7,1849,-35,-15,1246
1783350002918,142,-3,1874,-41,-48,1257
1783350002920,16,-26,1850,-46,-12,1240
1783350002922,58,57,1842,-28,2,1263
1783350002924,28,-37,1856,-9,-19,1249
1783350002926,78,19,1855,-24,-34,1230
1783350002928,-11,-11,1864,-34,-10,1232
1783350002930,85,16,1847,-49,15,1264
1783350002932,6,19,1820,-4,-32,1228
1783350002934,22,-55,1894,-40,-33,1233
1783350002936,40,-32,1872,0,-23,1242
1783350002938,31,-28,1852,-44,-26,1249
1783350002940,42,-17,1821,-33,-26,1228
1783350002942,34,7,1901,-39,-22,1208
1783350002944,18,-50,1889,-26,-30,1226
1783350002946,-43,6,1821,-54,-20,1243
1783350002948,4,-11,1907,-21,-46,1255
1783350002950,28,-17,1937,-34,-19,1217
1783350002952,12,-40,1830,-35,-18,1222
1783350002954,31,4,1833,-40,-18,1211
1783350002956,81,-47,1873,-42,0,1215
1783350002958,81,-44,1841,-46,3,1203
1783350002960,52,-11,1883,-70,-30,1226
1783350002962,1,-34,1838,-27,-40,1226
1783350002964,54,30,1861,-33,-14,1200
1783350002966,29,-20,1860,-47,-22,1216
1783350002968,-14,-8,1858,-22,-19,1229
1783350002970,61,-53,1841,-30,-50,1203
1783350002972,74,-4,1859,-25,-15,1205
1783350002974,48,10,1904,-18,19,1226
1783350002976,82,21,1825,-22,-5,1196
1783350002978,36,-9,1886,-31,-41,1216
1783350002980,50,-57,1904,-53,-17,1199
1783350002982,16,7,1856,-43,-16,1189
1783350002984,-4,59,1883,-24,-16,1204
1783350002986,59,22,1826,-33,-40,1212
1783350002988,24,-52,1866,-30,-19,1206
1783350002990,38,-22,1925,-27,-13,1206
1783350002992,37,-56,1814,-8,-22,1240
1783350002994,-3,-39,1815,-12,-26,1205
1783350002996,28,11,1826,-42,-32,1163
1783350002998,86,-40,1904,-28,-11,1165
1783350003000,54,33,1849,-21,-17,1200
1783350003002,89,10,1869,-31,-25,1162
1783350003004,12,-36,1862,-32,-10,1202
1783350003006,20,30,1879,-37,-20,1189
1783350003008,76,-83,1938,-1,-19,1192
1783350003010,38,-65,1843,-13,-2,1183
1783350003012,-2,-23,1875,-17,-30,1204
1783350003014,47,-89,1836,-40,5,1182
1783350003016,64,38,1868,-15,14,1184
1783350003018,128,-64,1949,-50,-10,1181
1783350003020,1,-79,1828,-43,13,1188
1783350003022,4,4,1887,-27,-25,1170
1783350003024,7,-39,1819,-63,-44,1198
1783350003026,17,-9,1844,-34,-22,1188
1783350003028,15,-40,1887,-52,-6,1165
1783350003030,56,-19,1926,-18,-1,1173
1783350003032,50,-39,1833,-48,-14,1163
1783350003034,31,-19,1869,-7,-28,1172
1783350003036,58,-24,1878,-18,-24,1150
1783350003038,78,-55,1854,9,-1,1179
1783350003040,2,-17,1892,-39,-34,1168
1783350003042,36,-65,1855,-34,-5,1191
1783350003044,63,-11,1806,-14,-19,1148
1783350003046,-12,-21,1845,-25,-20,1148
1783350003048,46,-7,1917,-22,-24,1181
1783350003050,55,44,1872,-37,-6,1165
1783350003052,8,-20,1896,-3,-50,1174
1783350003054,66,-20,1833,-58,14,1176
1783350003056,14,6,1835,-23,-12,1161
1783350003058,-27,19,1865,-38,-9,1170
1783350003060,16,-35,1867,-45,-20,1166
1783350003062,14,15,1873,-23,3,1161
1783350003064,68,-45,1808,-41,2,1153
1783350003066,-19,26,1853,-34,-15,1153
1783350003068,71,31,1869,-47,-7,1141
1783350003070,56,-55,1838,-2,-9,1169
1783350003072,16,-49,1788,-13,-26,1134
1783350003074,75,-24,1813,-7,-15,1137
1783350003076,65,4,1870,-11,-36,1126
1783350003078,47,-25,1904,-25,5,1145
1783350003080,84,-47,1868,-54,-8,1181
1783350003082,57,34,1899,-28,9,1132
1783350003084,79,-74,1844,-16,-20,1168
1783350003086,37,-26,1900,-30,-5,1148
1783350003088,21,20,1853,-26,-4,1162
1783350003090,6,-3,1915,-50,11,1102
1783350003092,-5,22,1912,-79,-20,1142
1783350003094,96,19,1833,-42,-21,1161
1783350003096,36,-4,1874,-31,-7,1140
1783350003098,78,12,1882,-52,3,1134
1783350003100,52,3,1852,-30,-20,1125
1783350003102,-15,15,1916,-43,-2,1115
1783350003104,29,-22,1881,27,-12,1122
1783350003106,77,-5,1859,-15,16,1135
1783350003108,41,-3,1854,-16,10,1113
1783350003110,31,73,1810,-4,0,1132
1783350003112,51,-9,1881,-33,-3,1148
1783350003114,52,-13,1821,-25,-7,1137
1783350003116,31,13,1906,-13,4,1151
1783350003118,24,-16,1918,-18,-9,1114
1783350003120,18,1,1923,-44,9,1130
1783350003122,32,-31,1879,-22,-1,1112
1783350003124,59,-31,1907,-14,-13,1113
1783350003126,29,-3,1872,-26,5,1142
1783350003128,-6,-32,1870,-9,6,1113
1783350003130,52,21,1866,-37,-6,1113
1783350003132,23,6,1858,-8,6,1140
1783350003134,17,32,1918,-15,11,1119
1783350003136,18,21,1838,-9,-4,1121
1783350003138,-13,-6,1882,-1,-8,1106
1783350003140,12,-30,1863,15,-8,1110
1783350003142,-9,19,1887,-23,-25,1105
1783350003144,25,16,1911,10,-6,1074
1783350003146,80,32,1864,-38,-16,1131
1783350003148,20,17,1878,-3,1,1125
1783350003150,14,-77,1918,-38,-28,1112
1783350003152,-18,-29,1862,-5,-5,1077
1783350003154,51,18,1856,-36,20,1108
1783350003156,23,40,1944,-15,-1,1098
1783350003158,89,-38,1913,-12,-18,1086
1783350003160,10,-4,1878,1,-8,1114
1783350003162,50,-13,1840,-26,-5,1116
1783350003164,44,-1,1831,-18,-7,1089
1783350003166,44,-23,1897,-11,-9,1080
1783350003168,15,16,1844,-11,2,1101
1783350003170,6,-70,1915,-28,7,1100
1783350003172,14,-25,1892,13,4,1047
1783350003174,57,-54,1878,-18,-1,1092
1783350003176,-8,-91,1846,-43,5,1106
1783350003178,28,-19,1844,9,-1,1090
1783350003180,6,-8,1833,-2,-8,1115
1783350003182,56,-12,1900,-11,-7,1100
1783350003184,-3,-32,1820,2,1,1113
1783350003186,38,-1,1871,-23,6,1096
1783350003188,51,6,1864,-22,-26,1069
1783350003190,-2,-38,1906,-11,30,1112
1783350003192,-24,4,1874,-33,29,1074
1783350003194,29,8,1905,-4,1,1097
1783350003196,23,-1,1928,12,-34,1079
1783350003198,-4,26,1848,-8,-23,1091
1783350003200,-10,-20,1900,12,-16,1099
1783350003202,30,-36,1909,-5,-8,1083
1783350003204,73,-80,1903,-24,-8,1068
1783350003206,26,-38,1865,10,6,1073
1783350003208,59,-46,1863,-25,0,1059
1783350003210,23,-54,1880,-26,-9,1077
1783350003212,42,-25,1866,-12,14,1094
1783350003214,67,-27,1843,-24,-6,1097
1783350003216,59,-49,1838,-23,24,1074
1783350003218,22,-43,1820,-24,-15,1079
1783350003220,-4,-26,1884,-15,5,1068
1783350003222,18,-35,1872,-20,28,1062
1783350003224,6,-31,1816,-14,8,1093
1783350003226,32,30,1828,-17,-20,1098
1783350003228,22,-14,1896,-8,9,1081
1783350003230,19,17,1884,12,11,1070
1783350003232,-11,6,1856,1,12,1062
1783350003234,42,5,1909,-2,-10,1072
1783350003236,9,-24,1888,-17,35,1063
1783350003238,33,-38,1850,-17,0,1061
1783350003240,10,-29,1862,-12,2,1077
1783350003242,-13,-47,1900,-9,13,1068
1783350003244,20,-65,1889,27,5,1076
1783350003246,14,-6,1834,-20,0,1046
1783350003248,75,-43,1868,-25,11,1067
1783350003250,-19,-76,1879,3,32,1052
1783350003252,67,-15,1817,-5,24,1055
1783350003254,23,-3,1840,3,33,1050
1783350003256,-1,0,1843,2,32,1044
1783350003258,69,-3,1804,0,-18,1053
1783350003260,22,-26,1868,4,23,1025
1783350003262,71,-15,1818,19,-7,1052
1783350003264,-28,-35,1867,-7,0,1066
1783350003266,44,22,1859,-24,-11,1042
1783350003268,16,16,1854,51,32,1014
1783350003270,-30,-26,1885,-5,20,1039
1783350003272,32,-36,1887,-23,2,1048
1783350003274,75,-1,1839,-18,33,1033
1783350003276,7,-55,1873,15,28,1046
1783350003278,25,23,1848,-19,29,1046
1783350003280,-3,-12,1842,37,21,1036
1783350003282,-18,11,1865,21,0,1033
1783350003284,-25,31,1859,25,17,1036
1783350003286,9,3,1879,-12,-8,1072
1783350003288,62,36,1880,6,-6,1017
1783350003290,23,-13,1775,-3,19,1014
1783350003292,20,-20,1873,10,17,1034
1783350003294,-2,-67,1919,7,7,1034
1783350003296,27,83,1857,9,-3,1050
1783350003298,29,-15,1884,18,-9,1021
1783350003300,60,-33,1855,-19,6,1026
1783350003302,-41,-15,1809,15,6,999
1783350003304,41,29,1835,-7,7,1037
1783350003306,-7,-10,1903,14,26,1020
1783350003308,-10,-67,1851,-5,1,1027
1783350003310,-25,-51,1883,13,26,1017
1783350003312,31,-20,1851,-21,34,1004
1783350003314,43,3,1870,35,-6,1024
1783350003316,5,-29,1868,4,-2,1015
1783350003318,62,-21,1899,33,6,1033
1783350003320,38,-11,1890,-8,27,1026
1783350003322,46,3,1835,0,7,1032
1783350003324,46,7,1848,21,12,1000
1783350003326,-6,-116,1860,4,12,1010
1783350003328,-20,-33,1847,10,41,1018
1783350003330,11,-41,1836,8,18,1028
1783350003332,17,-22,1900,-14,42,1016
1783350003334,38,-54,1835,31,15,987
1783350003336,3,13,1855,29,8,1032
1783350003338,50,-64,1850,32,35,1028
1783350003340,24,-17,1888,2,24,1009
1783350003342,23,-27,1858,17,9,1035
1783350003344,-25,-36,1872,-4,12,979
1783350003346,74,-22,1911,22,19,1018
1783350003348,71,8,1871,27,30,995
1783350003350,1,-18,1878,13,30,992
1783350003352,7,-4,1883,34,-11,1015
1783350003354,-9,20,1867,-11,28,1008
1783350003356,-19,-1,1920,29,5,981
1783350003358,32,-12,1892,26,25,993
1783350003360,-10,16,1901,28,25,1012
1783350003362,15,24,1857,32,20,990
1783350003364,52,22,1849,25,-3,1011
1783350003366,38,6,1843,-1,9,1002
1783350003368,62,66,1870,33,6,982
1783350003370,-2,36,1836,36,-5,1018
1783350003372,20,-69,1861,39,-2,981
1783350003374,-8,-30,1863,28,21,989
1783350003376,-23,24,1862,29,32,975
1783350003378,-20,-35,1920,33,26,997
1783350003380,29,-25,1885,31,4,1018
1783350003382,-11,8,1860,24,5,964
1783350003384,22,-8,1855,15,5,971
1783350003386,30,19,1877,16,19,975
1783350003388,58,-51,1830,9,24,984
1783350003390,-14,-46,1941,10,46,979
1783350003392,74,-27,1942,1,29,966
1783350003394,22,6,1875,-4,16,973
1783350003396,75,-2,1884,23,23,984
1783350003398,18,11,1829,30,18,965
1783350003400,18,26,1967,-5,-9,965
1783350003402,38,-33,1914,10,13,961
1783350003404,71,-30,1877,33,17,1002
1783350003406,100,-22,1855,47,-3,973
1783350003408,-32,-39,1887,24,28,981
1783350003410,-7,-37,1940,0,34,971
1783350003412,42,-41,1873,27,4,976
1783350003414,47,-17,1861,53,29,984
1783350003416,17,10,1851,25,7,983
1783350003418,5,-43,1850,13,25,945
1783350003420,21,-37,1888,34,33,946
1783350003422,22,70,1916,42,40,965
1783350003424,67,-17,1845,15,15,944
1783350003426,-13,-16,1865,28,22,965
1783350003428,37,-42,1864,45,45,977
1783350003430,-9,70,1854,32,7,989
1783350003432,23,-9,1910,12,12,955
1783350003434,-23,20,1879,37,19,968
1783350003436,-7,53,1859,9,-18,952
1783350003438,-29,14,1863,7,14,951
1783350003440,12,22,1855,5,24,969
1783350003442,14,25,1842,8,27,962
1783350003444,-4,-13,1861,47,15,953
1783350003446,67,-30,1916,47,10,964
1783350003448,7,-4,1893,33,39,951
1783350003450,75,53,1803,15,7,976
1783350003452,4,-49,1895,20,17,937
1783350003454,-36,2,1839,16,14,940
1783350003456,32,-47,1863,16,27,949
1783350003458,-10,-33,1815,34,46,958
1783350003460,-12,34,1909,17,7,917
1783350003462,-12,-33,1865,26,11,971
1783350003464,15,-35,1884,44,1,936
1783350003466,23,21,1888,11,15,941
1783350003468,-37,6,1842,12,23,960
1783350003470,15,-20,1874,27,37,943
1783350003472,-14,-14,1844,24,48,962
1783350003474,-47,-7,1885,39,54,941
1783350003476,6,66,1888,30,20,912
1783350003478,18,34,1826,38,15,958
1783350003480,74,40,1841,34,23,928
1783350003482,25,-26,1875,17,27,943
1783350003484,0,16,1850,42,26,914
1783350003486,-11,55,1871,30,29,926
1783350003488,-12,25,1885,12,26,936
1783350003490,-4,-10,1853,37,28,936
1783350003492,-49,36,1867,45,13,939
1783350003494,1,-51,1886,22,27,918
1783350003496,-5,14,1888,27,30,922
1783350003498,-27,-37,1821,38,26,922
1783350003500,60,13,1877,48,41,915
1783350003502,15,-45,1881,35,11,930
1783350003504,-18,-31,1904,49,28,917
1783350003506,83,56,1892,29,30,912
1783350003508,24,39,1873,44,46,908
1783350003510,7,-51,1848,31,12,935
1783350003512,42,-33,1862,38,6,921
1783350003514,20,27,1860,25,-6,916
1783350003516,42,18,1895,46,11,930
1783350003518,-15,1,1886,56,13,943
1783350003520,-46,15,1861,40,18,931
1783350003522,-3,-31,1949,18,25,904
1783350003524,43,-8,1899,5,28,910
1783350003526,2,-102,1841,40,-4,900
1783350003528,-24,-54,1890,55,11,921
1783350003530,0,-25,1867,16,28,911
1783350003532,-32,30,1842,43,57,901
1783350003534,-29,53,1873,46,-1,907
1783350003536,20,-11,1842,10,19,920
1783350003538,-13,-16,1905,26,24,942
1783350003540,34,-53,1898,19,47,926
1783350003542,-4,-3,1845,12,13,900
1783350003544,-28,0,1838,-3,37,916
1783350003546,45,4,1953,33,35,899
1783350003548,-32,-15,1885,49,29,889
1783350003550,26,-15,1857,41,18,938
1783350003552,-64,9,1815,32,21,926
1783350003554,-20,-28,1853,29,2,896
1783350003556,-9,-13,1906,46,33,899
1783350003558,35,-41,1842,29,12,917
1783350003560,1,16,1910,30,12,909
1783350003562,31,68,1902,59,45,904
1783350003564,-35,-40,1844,35,36,882
1783350003566,-8,13,1884,32,56,866
1783350003568,-67,31,1922,64,37,904
1783350003570,-45,-25,1852,25,16,891
1783350003572,33,34,1832,28,26,899
1783350003574,-37,56,1875,23,27,902
1783350003576,60,21,1894,27,36,891
1783350003578,-44,17,1875,26,35,881
1783350003580,80,30,1784,16,29,888
1783350003582,-35,-48,1862,39,32,911
1783350003584,-36,14,1862,62,5,906
1783350003586,53,10,1902,40,41,895
1783350003588,-71,-62,1863,36,6,911
1783350003590,35,-3,1855,27,31,901
1783350003592,14,-5,1863,27,34,902
1783350003594,-42,-19,1911,23,8,867
1783350003596,4,-27,1892,20,24,898
1783350003598,-74,-44,1880,65,31,871
1783350003600,36,6,1887,32,19,897
1783350003602,-3,90,1878,51,23,880
1783350003604,8,7,1886,41,34,882
1783350003606,9,34,1875,10,-5,869
1783350003608,6,-67,1913,33,39,861
1783350003610,-19,12,1870,46,40,868
1783350003612,25,24,1832,39,28,882
1783350003614,-2,52,1885,20,15,888
1783350003616,15,-25,1918,25,11,878
1783350003618,14,-3,1877,42,41,894
1783350003620,13,13,1866,12,13,883
1783350003622,15,-40,1878,45,46,853
1783350003624,5,23,1855,23,14,911
1783350003626,23,-4,1876,24,11,881
1783350003628,-51,38,1888,23,19,873
1783350003630,8,24,1866,42,48,845
1783350003632,-38,11,1913,26,12,871
1783350003634,18,19,1841,17,38,886
1783350003636,38,-21,1898,52,15,868
1783350003638,-51,-26,1910,5,10,869
1783350003640,-46,22,1876,63,19,884
1783350003642,5,-12,1833,42,32,860
1783350003644,53,21,1879,11,15,849
1783350003646,6,3,1878,29,38,847
1783350003648,44,62,1815,41,10,874
1783350003650,38,20,1874,24,22,848
1783350003652,60,-45,1911,41,32,883
1783350003654,26,-19,1905,24,-4,855
1783350003656,-10,21,1826,20,21,825
1783350003658,6,49,1874,1,30,853
1783350003660,52,24,1886,30,46,856
1783350003662,-39,-7,1843,19,43,873
1783350003664,37,22,1853,32,36,882
1783350003666,6,13,1817,40,28,824
1783350003668,-8,-34,1873,52,31,816
1783350003670,-87,-21,1803,34,-9,853
1783350003672,12,3,1882,21,10,864
1783350003674,-24,-26,1866,49,8,853
1783350003676,23,-28,1861,23,15,865
1783350003678,31,-3,1942,11,27,835
1783350003680,49,-55,1916,35,-2,871
1783350003682,-3,59,1820,10,32,870
1783350003684,-22,43,1827,38,33,864
1783350003686,-28,-20,1892,13,35,850
1783350003688,10,3,1864,24,22,836
1783350003690,24,23,1906,16,16,843
1783350003692,-33,-16,1890,21,-14,857
1783350003694,2,-49,1883,-2,36,844
1783350003696,-11,58,1850,47,35,827
1783350003698,-35,61,1850,3,15,838
1783350003700,-14,-25,1891,24,24,818
1783350003702,44,42,1882,41,30,860
1783350003704,0,70,1868,35,17,837
1783350003706,-9,29,1864,44,-19,832
1783350003708,21,29,1933,44,2,839
1783350003710,-25,11,1916,22,18,843
1783350003712,-35,-5,1885,19,22,851
1783350003714,78,31,1845,26,32,859
1783350003716,-30,25,1861,14,19,828
1783350003718,10,-36,1874,28,20,845
1783350003720,8,-29,1796,48,-9,856
1783350003722,12,26,1900,22,7,857
1783350003724,-19,-12,1853,53,31,830
1783350003726,7,-62,1901,31,39,818
1783350003728,12,-39,1807,40,26,819
1783350003730,-4,15,1870,29,6,825
1783350003732,-5,12,1845,13,38,822
1783350003734,-36,6,1832,34,25,827
1783350003736,32,4,1822,56,26,826
1783350003738,-52,21,1843,22,14,832
1783350003740,-20,74,1839,14,5,807
1783350003742,-1,-27,1855,22,9,807
1783350003744,14,56,1877,16,3,837
1783350003746,-15,62,1893,18,37,835
1783350003748,63,66,1799,20,16,775
1783350003750,-34,15,1881,38,38,792
1783350003752,-46,-24,1827,6,7,812
1783350003754,38,2,1872,33,27,801
1783350003756,-22,-60,1871,26,46,802
1783350003758,-13,-63,1881,17,36,851
1783350003760,-51,14,1877,48,41,831
1783350003762,-3,70,1872,24,1,796
1783350003764,14,86,1913,20,-9,808
1783350003766,-46,18,1884,4,4,804
1783350003768,24,-6,1808,23,0,812
1783350003770,19,-26,1897,18,43,809
1783350003772,5,0,1838,-2,10,830
1783350003774,-35,-8,1858,27,-1,791
1783350003776,9,-55,1837,5,30,798
1783350003778,-2,7,1859,19,15,814
1783350003780,80,-4,1852,23,17,807
1783350003782,5,29,1881,8,14,809
1783350003784,0,43,1880,13,11,830
1783350003786,5,-24,1891,52,47,834
1783350003788,5,-28,1868,8,37,805
1783350003790,11,39,1909,-4,9,785
1783350003792,28,28,1909,27,-4,779
1783350003794,16,49,1913,4,3,806
1783350003796,-4,22,1867,7,26,795
1783350003798,16,27,1904,28,24,816
1783350003800,-28,-55,1864,17,20,812
1783350003802,-3,42,1900,-14,6,776
1783350003804,-29,18,1903,2,26,817
1783350003806,-52,17,1883,5,24,807
1783350003808,-26,-34,1881,8,32,783
1783350003810,4,12,1857,20,38,789
1783350003812,-42,21,1876,7,20,800
1783350003814,-34,7,1849,9,21,805
1783350003816,-10,120,1887,31,11,791
1783350003818,12,-12,1794,18,6,803
1783350003820,-9,-33,1907,13,26,799
1783350003822,22,-12,1914,-13,6,783
1783350003824,-56,0,1890,18,19,764
1783350003826,-3,47,1828,26,11,812
1783350003828,-30,6,1884,-17,4,761
1783350003830,-3,7,1829,12,18,794
1783350003832,10,31,1872,34,35,787
1783350003834,33,7,1916,10,7,803
1783350003836,-43,36,1841,-26,10,775
1783350003838,-7,19,1854,-21,4,813
1783350003840,-28,54,1904,18,28,781
1783350003842,-88,95,1864,-1,14,787
1783350003844,3,6,1860,0,6,777
1783350003846,24,0,1880,28,25,782
1783350003848,0,45,1889,23,-8,786
1783350003850,-19,-15,1861,22,20,770
1783350003852,-2,4,1810,15,30,769
1783350003854,-10,16,1890,-11,-15,767
1783350003856,52,48,1836,-5,24,775
1783350003858,-27,-1,1922,-28,9,801
1783350003860,-18,25,1918,-4,17,772
1783350003862,39,45,1854,-12,5,763
1783350003864,-34,19,1830,8,0,773
1783350003866,8,41,1879,-16,48,777
1783350003868,23,-42,1838,16,-12,804
1783350003870,-37,2,1862,-28,9,770
1783350003872,11,20,1911,-6,27,772
1783350003874,-28,-30,1846,-9,-21,741
1783350003876,-56,-11,1900,10,13,785
1783350003878,-49,31,1875,14,-7,746
1783350003880,-67,4,1861,-17,19,773
1783350003882,-15,-10,1862,23,4,782
1783350003884,-38,-5,1870,28,23,795
1783350003886,-10,14,1928,-5,19,770
1783350003888,-47,53,1870,-9,0,758
1783350003890,-45,5,1885,9,3,759
1783350003892,-47,-26,1861,0,-17,772
1783350003894,-27,79,1944,-3,-11,764
1783350003896,-15,-48,1898,-7,37,741
1783350003898,-6,-30,1876,-7,35,749
1783350003900,20,26,1875,38,-3,750
1783350003902,-50,28,1868,-19,26,758
1783350003904,8,62,1888,21,6,783
1783350003906,9,52,1851,-2,8,785
1783350003908,-93,-52,1902,4,21,735
1783350003910,-14,29,1839,-4,15,777
1783350003912,6,-8,1878,4,-7,755
1783350003914,-22,42,1846,-15,-5,756
1783350003916,-32,-14,1922,-8,7,759
1783350003918,-72,23,1906,-18,1,754
1783350003920,9,-14,1845,16,10,754
1783350003922,-17,17,1869,-31,-5,753
1783350003924,-96,-20,1859,26,-16,753
1783350003926,-18,50,1792,-44,-8,740
1783350003928,-35,41,1864,0,8,728
1783350003930,-15,28,1932,-6,-9,738
1783350003932,-27,29,1879,16,-14,729
1783350003934,-26,3,1860,5,-10,749
1783350003936,-8,21,1872,-1,-24,767
1783350003938,61,39,1834,-50,17,758
1783350003940,-46,-22,1933,-3,-19,758
1783350003942,-44,-41,1830,11,21,748
1783350003944,-53,42,1846,-14,-1,757
1783350003946,-46,17,1916,-39,25,745
1783350003948,-1,-39,1899,-6,43,739
1783350003950,-27,58,1884,-17,-13,755
1783350003952,-53,38,1832,-33,-5,724
1783350003954,-50,21,1916,-20,31,757
1783350003956,-63,-29,1872,11,6,757
1783350003958,-76,19,1920,4,-4,724
1783350003960,-51,20,1837,-2,-9,754
1783350003962,-27,-21,1960,-11,-1,727
1783350003964,-10,48,1867,24,-6,748
1783350003966,3,-20,1823,-28,-38,740
1783350003968,-67,18,1856,-22,-7,730
1783350003970,-1,65,1856,-28,14,731
1783350003972,-13,-71,1861,-7,-33,703
1783350003974,-58,71,1936,-41,-4,738
1783350003976,14,6,1867,-18,12,720
1783350003978,-54,14,1890,-44,20,744
1783350003980,-41,-25,1895,-29,10,719
1783350003982,-57,-20,1870,-19,10,738
1783350003984,-25,8,1849,-39,21,706
1783350003986,24,7,1885,-8,3,723
1783350003988,5,70,1891,-18,-3,741
1783350003990,34,-51,1830,-45,14,724
1783350003992,-65,19,1901,-45,6,765
1783350003994,12,90,1830,-21,-5,731
1783350003996,-71,10,1873,12,0,752
1783350003998,-50,47,1879,-22,11,717
1783350004000,-59,-32,1849,-11,-8,738
1783350004002,-56,61,1825,-2,-32,703
1783350004004,13,1,1835,-21,-5,750
1783350004006,-67,-87,1882,-25,-15,745
1783350004008,8,-30,1893,-29,-44,706
1783350004010,-10,22,1898,4,-7,742
1783350004012,28,47,1818,-26,-9,707
1783350004014,-24,32,1884,-14,-31,730
1783350004016,-79,23,1846,-31,-24,725
1783350004018,-25,38,1859,-34,8,696
1783350004020,-12,-2,1841,-14,-29,708
1783350004022,-10,33,1860,-3,-14,729
1783350004024,-88,-48,1898,-20,-18,717
1783350004026,-69,-62,1846,-43,29,708
1783350004028,-43,24,1913,-27,-24,696
1783350004030,-66,-27,1900,0,-4,706
1783350004032,9,-10,1850,-19,11,701
1783350004034,-14,58,1866,-32,-32,703
1783350004036,-48,18,1879,-41,6,706
1783350004038,-71,30,1859,-21,-40,765
1783350004040,-126,33,1840,-25,9,715
1783350004042,-33,35,1941,-35,-14,718
1783350004044,-19,-6,1876,-21,-19,721
1783350004046,-39,62,1846,-20,0,696
1783350004048,0,-14,1921,-12,5,715
1783350004050,-49,7,1866,-48,-2,718
1783350004052,-25,71,1917,-37,-8,709
1783350004054,13,18,1844,-45,-13,718
1783350004056,-23,87,1888,-50,-9,701
1783350004058,-10,42,1919,-23,0,711
1783350004060,-30,25,1858,-38,-41,690
1783350004062,19,51,1855,1,-2,730
1783350004064,-27,50,1894,-30,4,702
1783350004066,-30,13,1848,-51,-17,661
1783350004068,-29,55,1919,-36,-10,677
1783350004070,-19,19,1846,-16,-6,726
1783350004072,-30,6,1892,-4,6,691
1783350004074,-66,5,1864,-49,3,692
1783350004076,-96,-33,1834,-18,-17,676
1783350004078,-43,-39,1868,-25,-11,685
1783350004080,13,35,1920,-19,-22,696
1783350004082,-17,-12,1871,-53,7,671
1783350004084,14,9,1851,-20,8,695
1783350004086,-41,56,1869,-43,-22,699
1783350004088,-21,4,1848,-22,-4,716
1783350004090,-20,102,1817,-18,-7,679
1783350004092,-48,40,1842,-20,-27,694
1783350004094,-13,44,1873,-15,9,690
1783350004096,-8,7,1818,-3,10,722
1783350004098,-41,7,1900,-29,-14,708
1783350004099,-119,9,1822,-22,-41,687
1783350004102,-47,77,1905,-17,3,673
1783350004104,-34,22,1883,-12,-23,695
1783350004106,-40,13,1909,-33,0,689
1783350004107,-119,71,1918,-57,-1,698
1783350004110,0,6,1846,-30,-27,681
1783350004112,-68,10,1925,-33,-12,675
1783350004114,-36,26,1901,-48,-18,692
1783350004115,-30,22,1873,-27,-26,668
1783350004118,-6,1,1876,-30,25,687
1783350004120,-40,37,1875,-16,-12,681
1783350004122,-39,-11,1859,-16,-1,669
1783350004123,-58,-16,1877,-42,16,678
1783350004126,-8,73,1854,-20,-3,682
1783350004128,3,-7,1921,-23,-14,691
1783350004130,-60,-17,1869,-46,-22,669
1783350004131,34,72,1832,-46,-28,664
1783350004134,-47,-3,1835,-24,-7,691
1783350004136,-79,62,1838,-28,10,688
1783350004138,-33,-23,1864,13,-30,679
1783350004139,-10,23,1820,-10,-13,673
1783350004142,-21,34,1861,-24,-23,687
1783350004144,-35,45,1874,-36,-32,653
1783350004146,-15,30,1917,-22,-4,700
1783350004147,11,37,1865,-69,-33,652
1783350004150,-48,38,1871,-20,-33,678
1783350004152,-23,22,1878,-16,-33,657
1783350004154,-22,-15,1870,-22,-25,681
1783350004155,-56,-45,1906,-13,-31,654
1783350004158,-40,0,1896,-34,3,686
1783350004160,-93,78,1886,-49,-13,685
1783350004162,-7,41,1848,-43,-27,649
1783350004163,-48,-14,1871,-18,0,684
1783350004166,-2,46,1921,-32,-34,674
1783350004168,-84,23,1898,-34,-35,687
1783350004170,-8,41,1909,-57,-18,666
1783350004171,-62,-26,1819,-14,15,666
1783350004174,-22,-22,1838,-53,-33,662
1783350004176,-23,-13,1894,-42,-30,626
1783350004178,-76,4,1823,-12,-8,641
1783350004179,-32,74,1882,-27,-1,661
1783350004182,-1,43,1880,-17,-20,676
1783350004184,-70,-12,1921,-15,-18,662
1783350004186,-6,60,1862,-26,-38,664
1783350004187,-81,40,1842,-30,-33,656
1783350004190,-88,59,1901,-19,-41,627
1783350004192,-5,-32,1881,-49,-37,657
1783350004194,-42,-6,1864,-41,-13,656
1783350004196,-65,27,1914,-59,-32,657
1783350004198,-139,9,1882,-14,-7,652
1783350004200,-115,-8,1892,-19,-13,630
1783350004202,-65,74,1880,-40,-32,621
1783350004204,-39,58,1908,-13,-40,663
1783350004206,-116,11,1887,-51,4,665
1783350004208,12,51,1910,-47,-1,677
1783350004210,-38,-13,1860,-38,-17,649
1783350004212,-39,51,1893,-4,-34,627
1783350004214,-37,52,1884,-20,-30,655
1783350004216,-29,30,1895,-17,-5,638
1783350004218,-113,2,1849,-42,-38,665
1783350004220,-38,9,1902,-30,-9,651
1783350004222,-42,14,1929,-27,-54,648
1783350004224,-28,-20,1903,-38,-23,631
1783350004226,-44,64,1965,-43,-44,623
1783350004228,-46,11,1847,-10,-13,654
1783350004230,-27,-7,1877,-45,-53,658
1783350004232,-50,22,1956,-36,-3,649
1783350004234,-132,37,1948,-30,-25,645
1783350004236,-85,17,1848,-34,-22,640
1783350004238,-44,-2,1904,-41,-27,637
1783350004240,-62,-53,1921,-23,-31,627
1783350004242,28,-64,1851,-23,6,645
1783350004244,-45,-39,1853,-30,-19,629
1783350004246,-25,-2,1854,-34,-6,623
1783350004248,-36,16,1841,-34,-28,629
1783350004250,30,-22,1904,-18,-15,615
1783350004252,-68,3,1887,-31,-13,652
1783350004254,-39,13,1926,-40,-60,630
1783350004256,-73,48,1879,-31,-15,611
1783350004258,-79,55,1888,-34,-7,649
1783350004260,-17,21,1852,-27,-31,619
1783350004262,-69,36,1898,-59,-7,644
1783350004264,-39,12,1832,-51,-25,643
1783350004266,-22,38,1857,-37,-27,625
1783350004268,-53,55,1901,-54,-25,625
1783350004270,-12,-34,1890,-53,-24,640
1783350004272,-114,19,1789,-36,-34,588
1783350004274,-68,13,1904,-36,-4,635
1783350004276,-32,-3,1864,-13,-21,622
1783350004278,-35,3,1879,-22,-4,642
1783350004280,-40,-41,1850,-54,-9,634
1783350004282,-71,13,1917,-26,-40,635
1783350004284,-67,18,1945,-22,-29,625
1783350004286,-102,52,1888,-32,-25,619
1783350004288,-73,8,1863,-43,-38,633
1783350004290,-72,54,1916,-40,-26,615
1783350004292,-52,12,1844,22,-20,624
1783350004294,8,34,1869,-33,-13,617
1783350004296,-95,-39,1839,-36,-12,616
1783350004298,-95,-26,1871,-29,-1,620
1783350004300,-42,2,1909,-17,-20,635
1783350004302,-58,3,1910,-14,-22,620
1783350004304,-26,27,1864,-21,-29,651
1783350004306,-77,12,1905,23,-24,615
1783350004308,-3,-12,1894,-9,-45,603
1783350004310,-38,64,1873,-27,-23,637
1783350004312,-4,32,1901,-52,-40,607
1783350004314,-88,23,1883,-40,-32,608
1783350004316,-14,6,1860,-24,-46,625
1783350004318,-112,-8,1901,-54,-30,623
1783350004320,-60,-16,1868,-23,-15,639
1783350004322,-12,57,1926,-32,-22,596
1783350004324,-61,-31,1873,-31,-33,618
1783350004326,-29,-34,1893,-20,-32,618
1783350004328,-18,-10,1888,-12,-30,602
1783350004330,-113,-2,1909,-22,-14,615
1783350004332,-38,-1,1853,-31,-31,606
1783350004334,21,-34,1911,-18,-17,603
1783350004336,-36,-1,1919,-16,-34,609
1783350004338,-26,-13,1893,-37,3,625
1783350004340,-59,-28,1851,-25,-15,597
1783350004342,34,22,1869,-14,-29,586
1783350004344,-14,62,1894,-19,-47,603
1783350004346,-62,-27,1929,6,-39,626
1783350004348,-24,-29,1837,-52,-38,607
1783350004350,9,6,1921,-40,-11,632
1783350004352,-62,-3,1911,-31,-18,605
1783350004354,-24,17,1900,-35,-15,617
1783350004356,-50,70,1906,-43,-20,615
1783350004358,-19,67,1836,-24,-28,571
1783350004360,-70,22,1892,-27,-24,575
1783350004362,-20,19,1827,-23,-28,600
1783350004364,-23,-6,1854,-12,-26,607
1783350004366,-103,25,1895,-17,-22,594
1783350004368,-28,35,1884,-32,-30,592
1783350004370,-38,-30,1943,-28,-29,582
1783350004372,-15,9,1893,-29,-45,597
1783350004374,14,36,1900,-46,-49,627
1783350004376,-55,-67,1866,-30,-26,591
1783350004378,-63,32,1879,-29,-18,604
1783350004380,-34,8,1919,2,-33,593
1783350004382,-33,0,1844,-26,3,597
1783350004384,-45,-1,1865,-20,-1,595
1783350004386,-37,43,1865,0,-16,617
1783350004388,-55,-10,1820,-11,-30,595
1783350004390,-7,-10,1863,-18,-40,619
1783350004392,-33,16,1881,-30,-25,578
1783350004394,-98,-17,1869,-21,-26,589
1783350004396,-47,48,1833,17,-2,576
1783350004398,-12,2,1848,-23,-18,586
1783350004400,-36,29,1925,-25,-14,604
1783350004402,-25,25,1834,-14,-8,608
1783350004404,-14,-44,1837,-10,-11,599
1783350004406,-12,35,1912,-55,-6,599
1783350004408,-33,-62,1867,-17,-37,569
1783350004410,-77,-3,1856,2,-11,606
1783350004412,-40,27,1896,-16,5,583
1783350004414,-31,7,1827,-1,-20,596
1783350004416,-44,25,1895,-39,-33,641
1783350004418,-72,-9,1858,-37,-17,589
1783350004420,-3,11,1881,-13,-29,580
1783350004422,-54,-30,1930,0,3,586
1783350004424,-19,-74,1862,-16,-39,607
1783350004426,-52,44,1826,16,-23,576
1783350004428,-85,4,1895,-15,-22,598
1783350004430,-40,-2,1894,-31,-26,587
1783350004432,-18,-9,1873,-13,-10,581
1783350004434,-27,-20,1913,-10,-23,577
1783350004436,-40,36,1879,-1,-39,556
1783350004438,-30,-25,1926,-40,-32,596
1783350004440,-108,21,1907,-15,-21,579
1783350004442,-77,10,1896,-37,-19,571
1783350004444,-101,-19,1894,-11,-22,549
1783350004446,-73,14,1869,-9,-6,565
1783350004448,0,-2,1908,12,-22,574
1783350004450,-24,72,1874,-21,6,570
1783350004452,-8,-17,1843,-6,-22,573
1783350004454,-23,16,1903,-2,-10,561
1783350004456,-30,81,1864,9,-21,587
1783350004458,-6,42,1922,35,-54,567
1783350004460,-69,34,1868,-1,-27,592
1783350004462,0,9,1874,8,-21,546
1783350004464,-97,-21,1867,-33,-15,576
1783350004466,-73,9,1849,-20,-8,620
1783350004468,-69,59,1902,2,-30,575
1783350004470,-38,47,1839,-2,-28,572
1783350004472,-27,20,1930,-2,-12,570
1783350004474,2,18,1831,4,-39,565
1783350004476,0,70,1838,-7,-13,559
1783350004478,-88,11,1898,-28,-3,587
1783350004480,-40,23,1872,-5,-34,590
1783350004482,-14,-6,1988,21,-16,568
1783350004484,-88,-45,1895,9,11,582
1783350004486,-16,-5,1896,6,-46,568
1783350004488,-12,24,1899,-16,-3,575
1783350004490,-98,22,1883,16,-9,597
1783350004492,-54,10,1927,-4,-39,578
1783350004494,1,-15,1902,-23,-30,554
1783350004496,-47,73,1855,2,-27,560
1783350004498,-51,11,1952,12,-6,573
1783350004500,-4,590,2059,2,661,8
1783350004502,17,636,2075,33,664,-5
1783350004504,32,623,2014,10,644,5
1783350004506,5,655,2110,2,667,13
1783350004508,18,630,2075,37,666,9
1783350004510,43,611,2085,47,659,3
1783350004512,85,620,2070,42,648,27
1783350004514,78,625,2099,37,645,18
1783350004516,103,678,2067,68,667,-2
1783350004518,65,590,2140,69,662,16
1783350004520,111,651,2147,81,637,16
1783350004522,81,600,2059,71,650,29
1783350004524,125,592,2153,115,648,35
1783350004526,106,571,2157,106,676,12
1783350004528,88,608,2149,119,653,36
1783350004530,122,627,2124,118,660,28
1783350004532,131,633,2133,132,663,47
1783350004534,175,573,2153,128,653,40
1783350004536,143,612,2200,148,632,44
1783350004538,160,596,2182,158,649,43
1783350004540,137,591,2191,164,656,31
1783350004542,198,582,2164,171,650,49
1783350004544,204,568,2177,178,665,53
1783350004546,173,610,2201,206,643,71
1783350004548,181,588,2230,205,634,59
1783350004550,207,567,2198,198,640,46
1783350004552,267,598,2235,211,654,59
1783350004554,236,597,2189,221,657,56
1783350004556,218,617,2163,219,646,65
1783350004558,173,602,2237,222,652,86
1783350004560,251,633,2188,248,639,83
1783350004562,249,591,2257,242,647,66
1783350004564,236,547,2204,260,636,77
1783350004566,306,639,2239,265,650,70
1783350004568,321,620,2221,255,626,89
1783350004570,314,603,2289,274,649,88
1783350004572,246,582,2272,277,635,92
1783350004574,233,600,2255,292,618,82
1783350004576,306,629,2280,324,617,80
1783350004578,287,590,2276,297,634,91
1783350004580,313,597,2280,312,656,88
1783350004582,281,552,2288,319,606,90
1783350004584,335,592,2327,319,604,115
1783350004586,321,563,2324,324,632,94
1783350004588,333,582,2334,334,626,111
1783350004590,327,560,2290,363,619,108
1783350004592,341,562,2334,376,631,99
1783350004594,333,550,2287,349,615,114
1783350004596,374,569,2368,374,613,107
1783350004598,368,545,2341,375,614,103
1783350004600,407,561,2332,389,600,109
1783350004602,419,532,2312,383,609,114
1783350004604,352,550,2340,390,609,109
1783350004606,375,562,2374,409,601,118
1783350004608,446,528,2344,392,620,129
1783350004610,380,555,2362,423,601,121
1783350004612,444,546,2365,430,603,129
1783350004614,403,563,2380,426,584,138
1783350004616,448,505,2417,427,577,124
1783350004618,467,584,2396,428,571,119
1783350004620,435,565,2365,454,590,152
1783350004622,489,488,2430,452,603,135
1783350004624,469,537,2367,457,596,137
1783350004626,451,577,2466,484,591,137
1783350004628,464,552,2400,480,587,132
1783350004630,500,539,2391,471,579,120
1783350004632,471,513,2431,492,563,123
1783350004634,424,517,2416,498,573,147
1783350004636,473,545,2447,498,587,142
1783350004638,437,499,2388,504,562,126
1783350004640,463,472,2425,506,581,133
1783350004642,516,495,2416,508,574,139
1783350004644,534,486,2442,514,573,147
1783350004646,519,493,2495,535,549,136
1783350004648,504,492,2422,530,563,143
1783350004650,561,524,2474,529,558,152
1783350004652,536,506,2411,541,556,144
1783350004654,602,490,2450,533,557,168
1783350004656,521,485,2448,555,552,142
1783350004658,513,514,2486,562,525,155
1783350004660,593,529,2485,553,543,161
1783350004662,539,482,2468,560,549,144
1783350004664,582,491,2483,561,531,162
1783350004666,578,465,2509,583,522,148
1783350004668,575,505,2495,562,544,154
1783350004670,618,451,2472,574,510,142
1783350004672,539,454,2462,585,519,180
1783350004674,579,469,2468,603,525,156
1783350004676,629,460,2510,622,532,157
1783350004678,604,451,2524,613,505,157
1783350004680,607,448,2554,617,500,148
1783350004682,657,436,2457,624,506,171
1783350004684,592,449,2489,612,506,168
1783350004686,611,446,2515,611,496,163
1783350004688,616,438,2515,624,496,166
1783350004690,630,404,2493,638,485,148
1783350004692,632,452,2499,637,498,161
1783350004694,634,414,2526,638,502,159
1783350004696,669,402,2583,636,500,162
1783350004698,593,420,2528,652,486,155
1783350004700,673,411,2532,658,468,151
1783350004702,678,459,2555,658,468,169
1783350004704,626,401,2564,659,474,165
1783350004706,713,436,2543,657,482,177
1783350004708,635,430,2570,652,452,177
1783350004710,663,389,2578,665,477,161
1783350004712,730,400,2536,673,460,141
1783350004714,630,423,2613,681,454,180
1783350004716,667,357,2526,686,458,169
1783350004718,708,386,2602,682,456,163
1783350004720,700,399,2573,681,442,164
1783350004722,701,393,2583,679,446,165
1783350004724,678,367,2538,699,449,157
1783350004726,711,380,2565,697,423,165
1783350004728,702,308,2581,713,416,155
1783350004730,709,346,2534,698,425,153
1783350004732,700,440,2585,707,420,169
1783350004734,713,396,2614,680,425,155
1783350004736,729,320,2622,718,406,174
1783350004738,709,383,2581,723,414,167
1783350004740,702,324,2570,722,396,149
1783350004742,731,344,2630,723,402,154
1783350004744,760,336,2588,721,402,142
1783350004746,701,327,2595,718,418,147
1783350004748,684,376,2571,731,394,161
1783350004750,728,343,2578,722,394,148
1783350004752,692,340,2614,703,374,152
1783350004754,706,347,2601,731,385,151
1783350004756,700,315,2581,744,370,140
1783350004758,742,342,2623,753,377,144
1783350004760,734,352,2595,737,378,155
1783350004762,720,295,2576,735,355,169
1783350004764,796,344,2579,728,344,164
1783350004766,730,366,2627,745,362,149
1783350004768,760,283,2610,731,360,156
1783350004770,714,346,2590,729,376,145
1783350004772,756,253,2628,752,337,121
1783350004774,719,299,2635,754,351,145
1783350004776,743,300,2623,725,344,145
1783350004778,751,281,2630,752,338,149
1783350004780,766,280,2597,726,317,138
1783350004782,724,282,2600,757,305,136
1783350004784,742,306,2614,736,315,145
1783350004786,730,257,2612,732,310,148
1783350004788,742,239,2594,729,319,130
1783350004790,810,282,2639,750,291,136
1783350004792,736,250,2601,748,314,124
1783350004794,711,245,2630,743,289,139
1783350004796,761,257,2591,759,286,129
1783350004798,741,247,2623,760,267,127
1783350004800,776,221,2635,751,280,110
1783350004802,720,190,2625,736,283,122
1783350004804,730,247,2557,728,264,125
1783350004806,727,205,2638,737,269,122
1783350004808,759,266,2580,746,276,128
1783350004810,711,299,2623,745,245,104
1783350004812,757,255,2633,729,270,126
1783350004814,773,194,2612,746,262,124
1783350004816,770,245,2590,750,247,109
1783350004818,685,215,2597,749,242,104
1783350004820,674,186,2587,725,234,111
1783350004822,712,179,2598,737,228,117
1783350004824,729,183,2569,749,236,102
1783350004826,777,178,2646,749,220,102
1783350004828,736,167,2618,736,222,114
1783350004830,692,152,2605,747,217,115
1783350004832,744,220,2591,734,196,106
1783350004834,721,159,2617,728,192,89
1783350004836,742,111,2583,720,199,100
1783350004838,756,132,2639,731,200,103
1783350004840,739,166,2573,734,182,95
1783350004842,709,163,2579,740,188,84
1783350004844,718,192,2589,738,189,78
1783350004846,759,149,2572,729,167,84
1783350004848,780,164,2582,716,163,71
1783350004850,751,126,2541,739,157,87
1783350004852,697,180,2558,718,164,73
1783350004854,720,128,2612,722,143,100
1783350004856,703,127,2575,709,147,79
1783350004858,691,128,2583,725,144,67
1783350004860,685,93,2579,714,165,87
1783350004862,721,127,2605,705,117,61
1783350004864,722,95,2564,709,130,76
1783350004866,693,96,2572,707,109,76
1783350004868,736,102,2582,696,124,51
1783350004870,671,106,2590,704,119,56
1783350004872,732,81,2563,707,119,71
1783350004874,723,114,2610,699,109,48
1783350004876,718,111,2601,711,101,48
1783350004878,719,8,2541,673,90,35
1783350004880,667,85,2555,699,87,51
1783350004882,706,72,2606,694,90,38
1783350004884,645,94,2519,679,71,33
1783350004886,709,74,2567,665,86,39
1783350004888,616,58,2599,670,70,30
1783350004890,688,55,2544,680,67,44
1783350004892,688,97,2562,662,54,26
1783350004894,642,40,2553,674,46,14
1783350004896,639,26,2526,650,62,20
1783350004898,655,9,2501,657,38,18
1783350004900,651,-14,2517,639,49,27
1783350004902,653,36,2593,653,44,17
1783350004904,643,39,2542,638,28,7
1783350004906,703,68,2529,630,20,4
1783350004908,613,19,2499,649,12,22
1783350004910,615,32,2536,640,23,-3
1783350004912,660,3,2537,627,2,0
1783350004914,622,-2,2504,621,4,10
1783350004916,621,3,2521,637,-7,-13
1783350004918,611,-10,2555,622,3,9
1783350004920,638,12,2512,630,3,-24
1783350004922,594,-24,2489,613,-10,-9
1783350004924,609,-14,2506,604,-25,-10
1783350004926,578,-62,2502,616,0,-12
1783350004928,631,-44,2530,607,-24,-23
1783350004930,608,-18,2496,611,-30,-17
1783350004932,594,-21,2504,586,-40,-14
1783350004934,601,-58,2485,581,-51,-31
1783350004936,602,-29,2465,573,-53,-7
1783350004938,592,-57,2469,561,-23,-32
1783350004940,536,-58,2465,576,-47,-28
1783350004942,554,-48,2531,549,-50,-41
1783350004944,554,-52,2483,555,-82,-24
1783350004946,565,-52,2430,567,-83,-41
1783350004948,552,-28,2475,560,-71,-41
1783350004950,573,-108,2472,553,-83,-31
1783350004952,532,-95,2446,564,-93,-52
1783350004954,515,-94,2457,537,-82,-48
1783350004956,564,-104,2416,541,-84,-25
1783350004958,488,-118,2434,534,-78,-42
1783350004960,521,-98,2385,521,-100,-55
1783350004962,468,-122,2430,530,-105,-54
1783350004964,464,-109,2455,519,-114,-51
1783350004966,481,-128,2458,520,-128,-39
1783350004968,510,-108,2446,505,-123,-77
1783350004970,441,-115,2462,494,-121,-75
1783350004972,428,-104,2409,491,-146,-72
1783350004974,537,-94,2408,505,-135,-67
1783350004976,447,-151,2422,491,-147,-73
1783350004978,515,-131,2400,485,-134,-72
1783350004980,498,-131,2405,467,-148,-74
1783350004982,438,-146,2394,455,-162,-74
1783350004984,465,-149,2424,441,-172,-82
1783350004986,460,-185,2416,467,-157,-69
1783350004988,466,-115,2397,454,-176,-95
1783350004990,487,-157,2380,438,-177,-98
1783350004992,438,-167,2376,434,-181,-85
1783350004994,405,-148,2357,424,-191,-98
1783350004996,415,-172,2386,433,-198,-106
1783350004998,437,-133,2331,411,-201,-90
1783350005000,424,-187,2376,413,-205,-101
1783350005002,423,-179,2364,416,-207,-95
1783350005004,376,-174,2352,383,-220,-110
1783350005006,402,-167,2330,402,-222,-91
1783350005008,434,-176,2378,398,-221,-99
1783350005010,374,-225,2326,381,-226,-106
1783350005012,367,-218,2330,380,-233,-112
1783350005014,370,-179,2375,379,-243,-130
1783350005016,392,-201,2275,368,-230,-102
1783350005018,350,-210,2345,352,-235,-99
1783350005020,380,-174,2256,347,-260,-115
1783350005022,340,-266,2293,357,-269,-105
1783350005024,322,-235,2313,349,-267,-100
1783350005026,324,-206,2305,343,-268,-128
1783350005028,334,-189,2334,319,-272,-94
1783350005030,337,-245,2318,313,-257,-119
1783350005032,317,-200,2340,317,-268,-136
1783350005034,302,-200,2262,324,-277,-126
1783350005036,273,-233,2277,297,-280,-135
1783350005038,293,-243,2296,275,-263,-130
1783350005040,240,-210,2272,291,-280,-120
1783350005042,284,-268,2261,281,-297,-135
1783350005044,313,-274,2232,277,-298,-129
1783350005046,286,-292,2291,265,-308,-117
1783350005048,244,-299,2244,253,-312,-149
1783350005050,221,-210,2240,254,-324,-137
1783350005052,266,-323,2200,263,-313,-124
1783350005054,259,-276,2214,238,-326,-128
1783350005056,212,-264,2255,222,-327,-140
1783350005058,237,-252,2242,231,-332,-131
1783350005060,165,-265,2213,204,-337,-150
1783350005062,221,-291,2210,219,-336,-160
1783350005064,225,-252,2215,210,-360,-155
1783350005066,212,-279,2224,182,-352,-147
1783350005068,150,-311,2189,179,-342,-166
1783350005070,206,-313,2186,196,-363,-137
1783350005072,172,-307,2195,190,-348,-148
1783350005074,199,-323,2173,178,-370,-146
1783350005076,199,-303,2144,176,-374,-173
1783350005078,151,-286,2139,169,-371,-150
1783350005080,166,-313,2159,155,-378,-149
1783350005082,163,-301,2156,157,-383,-150
1783350005084,109,-278,2178,137,-393,-158
1783350005086,138,-319,2170,137,-397,-139
1783350005088,131,-311,2129,127,-384,-148
1783350005090,116,-323,2105,126,-391,-144
1783350005092,113,-282,2130,100,-400,-167
1783350005094,73,-380,2154,101,-407,-167
1783350005096,35,-321,2148,103,-414,-153
1783350005098,55,-300,2146,105,-414,-153
1783350005100,124,-315,2142,80,-424,-176
1783350005102,125,-379,2153,97,-432,-177
1783350005104,88,-346,2093,64,-426,-162
1783350005106,63,-351,2103,73,-436,-161
1783350005108,53,-340,2099,57,-436,-157
1783350005110,42,-347,2121,52,-437,-146
1783350005112,58,-324,2101,44,-447,-149
1783350005114,19,-379,2055,31,-445,-154
1783350005116,50,-424,2042,23,-440,-159
1783350005118,55,-341,2013,37,-451,-160
1783350005120,10,-415,2028,5,-464,-179
1783350005122,8,-373,2054,3,-465,-150
1783350005124,8,-425,2094,4,-461,-178
1783350005126,10,-378,2052,-10,-461,-164
1783350005128,-2,-396,2041,-5,-460,-171
1783350005130,19,-395,2052,-5,-468,-168
1783350005132,20,-404,2028,-17,-476,-157
1783350005134,12,-392,2014,-30,-478,-171
1783350005136,21,-427,1988,-44,-486,-168
1783350005138,-60,-419,2001,-48,-472,-143
1783350005140,-28,-428,2017,-42,-474,-160
1783350005142,-81,-408,1997,-39,-494,-165
1783350005144,-11,-418,2007,-58,-515,-146
1783350005146,-81,-436,1945,-73,-502,-176
1783350005148,-91,-429,1979,-56,-503,-149
1783350005150,-53,-384,2008,-74,-496,-159
1783350005152,-67,-438,1981,-91,-525,-168
1783350005154,-115,-439,1972,-104,-505,-168
1783350005156,-99,-447,1994,-92,-517,-157
1783350005158,-133,-420,1938,-98,-519,-165
1783350005160,-117,-401,1909,-104,-524,-172
1783350005162,-147,-460,1941,-114,-521,-161
1783350005164,-148,-430,1940,-143,-528,-165
1783350005166,-75,-414,1970,-136,-534,-140
1783350005168,-171,-423,1921,-155,-542,-145
1783350005170,-152,-389,1943,-155,-533,-149
1783350005172,-214,-432,1930,-162,-537,-134
1783350005174,-179,-460,1924,-150,-540,-131
1783350005176,-161,-435,1910,-163,-543,-165
1783350005178,-102,-451,1920,-173,-538,-155
1783350005180,-193,-421,1924,-175,-557,-138
1783350005182,-196,-501,1911,-199,-541,-137
1783350005184,-218,-428,1900,-208,-552,-162
1783350005186,-203,-435,1929,-183,-566,-132
1783350005188,-178,-459,1855,-204,-554,-142
1783350005190,-200,-428,1882,-212,-564,-133
1783350005192,-205,-493,1857,-229,-554,-136
1783350005194,-265,-460,1867,-243,-567,-126
1783350005196,-239,-401,1858,-238,-573,-136
1783350005198,-216,-470,1870,-222,-563,-154
1783350005200,-207,-410,1886,-260,-570,-140
1783350005202,-271,-462,1817,-256,-583,-159
1783350005204,-252,-523,1864,-263,-606,-152
1783350005206,-256,-470,1833,-244,-571,-139
1783350005208,-259,-499,1867,-281,-582,-124
1783350005210,-276,-491,1791,-259,-588,-127
1783350005212,-310,-465,1827,-274,-591,-129
1783350005214,-315,-484,1902,-271,-592,-106
1783350005216,-307,-499,1818,-295,-573,-127
1783350005218,-287,-535,1816,-291,-615,-111
1783350005220,-242,-445,1867,-283,-585,-128
1783350005222,-302,-456,1830,-315,-598,-127
1783350005224,-301,-485,1824,-302,-602,-115
1783350005226,-296,-473,1834,-338,-603,-115
1783350005228,-310,-519,1826,-313,-596,-125
1783350005230,-339,-499,1827,-327,-611,-128
1783350005232,-338,-450,1762,-309,-618,-132
1783350005234,-343,-487,1711,-325,-607,-88
1783350005236,-319,-464,1778,-342,-610,-97
1783350005238,-335,-543,1789,-352,-626,-95
1783350005240,-343,-516,1761,-358,-608,-109
1783350005242,-383,-519,1748,-350,-628,-99
1783350005244,-373,-515,1757,-354,-612,-107
1783350005246,-403,-508,1774,-374,-625,-104
1783350005248,-419,-512,1770,-368,-622,-85
1783350005250,-418,-507,1743,-376,-610,-92
1783350005252,-370,-487,1780,-383,-623,-108
1783350005254,-412,-520,1715,-396,-641,-74
1783350005256,-428,-533,1720,-389,-647,-95
1783350005258,-406,-450,1762,-400,-639,-106
1783350005260,-363,-474,1735,-398,-623,-98
1783350005262,-368,-512,1660,-409,-633,-88
1783350005264,-393,-523,1749,-405,-614,-89
1783350005266,-413,-559,1740,-442,-628,-71
1783350005268,-445,-532,1762,-432,-639,-72
1783350005270,-467,-472,1720,-424,-624,-68
1783350005272,-466,-551,1727,-437,-645,-82
1783350005274,-454,-514,1718,-458,-652,-67
1783350005276,-422,-476,1724,-460,-654,-69
1783350005278,-476,-596,1672,-461,-645,-58
1783350005280,-504,-525,1695,-455,-646,-65
1783350005282,-444,-522,1701,-465,-644,-52
1783350005284,-493,-486,1746,-453,-670,-55
1783350005286,-479,-515,1685,-474,-653,-65
1783350005288,-455,-532,1668,-475,-641,-57
1783350005290,-493,-510,1751,-481,-651,-35
1783350005292,-463,-539,1646,-462,-634,-57
1783350005294,-463,-525,1698,-492,-648,-49
1783350005296,-462,-543,1656,-499,-651,-72
1783350005298,-479,-518,1675,-491,-650,-42
1783350005300,-538,-535,1692,-489,-663,-47
1783350005302,-514,-577,1629,-495,-675,-41
1783350005304,-565,-486,1663,-503,-653,-34
1783350005306,-522,-554,1662,-507,-652,-37
1783350005308,-511,-569,1637,-511,-662,-11
1783350005310,-491,-541,1660,-531,-644,-36
1783350005312,-516,-509,1707,-515,-677,-31
1783350005314,-572,-537,1620,-512,-656,-18
1783350005316,-533,-498,1658,-536,-657,-13
1783350005318,-519,-536,1655,-538,-655,-8
1783350005320,-528,-536,1649,-530,-662,-15
1783350005322,-558,-488,1634,-560,-669,-3
1783350005324,-562,-529,1656,-525,-657,-6
1783350005326,-528,-542,1633,-549,-658,-24
1783350005328,-525,-501,1598,-550,-659,-4
1783350005330,-565,-516,1634,-560,-646,11
1783350005332,-558,-584,1640,-546,-645,6
1783350005334,-544,-488,1645,-543,-647,-12
1783350005336,-517,-525,1697,-564,-654,-6
1783350005338,-554,-506,1663,-569,-643,15
1783350005340,-622,-506,1616,-558,-661,18
1783350005342,-594,-496,1648,-565,-654,7
1783350005344,-544,-543,1581,-561,-663,17
1783350005346,-526,-520,1653,-569,-660,14
1783350005348,-526,-485,1665,-588,-663,10
1783350005350,-558,-500,1632,-568,-670,19
1783350005352,-578,-478,1635,-559,-648,10
1783350005354,-554,-484,1606,-572,-641,25
1783350005356,-575,-539,1635,-573,-655,25
1783350005358,-577,-521,1593,-593,-662,32
1783350005360,-608,-541,1628,-579,-655,26
1783350005362,-545,-574,1623,-598,-646,43
1783350005364,-549,-518,1587,-564,-650,41
1783350005366,-606,-489,1638,-603,-659,29
1783350005368,-601,-546,1608,-584,-639,20
1783350005370,-606,-543,1641,-606,-640,54
1783350005372,-645,-479,1586,-582,-648,49
1783350005374,-564,-545,1571,-598,-650,56
1783350005376,-590,-552,1621,-600,-632,58
1783350005378,-574,-494,1575,-607,-633,47
1783350005380,-603,-509,1580,-613,-654,55
1783350005382,-571,-467,1630,-594,-635,63
1783350005384,-631,-483,1586,-613,-652,62
1783350005386,-600,-505,1588,-598,-651,72
1783350005388,-618,-543,1617,-621,-630,78
1783350005390,-614,-520,1601,-606,-628,85
1783350005392,-642,-475,1574,-597,-646,68
1783350005394,-627,-484,1599,-605,-633,76
1783350005396,-586,-472,1627,-621,-643,73
1783350005398,-590,-485,1604,-592,-660,81
1783350005400,-623,-497,1553,-608,-619,65
1783350005402,-604,-490,1579,-608,-644,79
1783350005404,-638,-505,1555,-614,-634,101
1783350005406,-615,-505,1565,-615,-644,78
1783350005408,-594,-491,1576,-618,-616,85
1783350005410,-595,-467,1644,-627,-644,82
1783350005412,-582,-475,1561,-601,-630,86
1783350005414,-632,-484,1593,-617,-610,107
1783350005416,-602,-511,1589,-613,-619,87
1783350005418,-631,-477,1604,-620,-643,100
1783350005420,-646,-493,1615,-632,-634,108
1783350005422,-600,-483,1571,-630,-614,114
1783350005424,-640,-482,1612,-613,-611,99
1783350005426,-602,-471,1551,-616,-600,98
1783350005428,-626,-468,1592,-625,-610,90
1783350005430,-593,-509,1585,-622,-622,105
1783350005432,-599,-517,1627,-616,-598,105
1783350005434,-643,-461,1558,-615,-616,121
1783350005436,-639,-450,1592,-620,-601,108
1783350005438,-616,-426,1605,-606,-608,120
1783350005440,-607,-464,1565,-632,-599,115
1783350005442,-603,-440,1569,-623,-593,129
1783350005444,-640,-518,1626,-636,-590,128
1783350005446,-584,-501,1618,-609,-594,127
1783350005448,-598,-436,1548,-616,-599,123
1783350005450,-643,-458,1571,-612,-579,138
1783350005452,-636,-464,1579,-623,-578,101
1783350005454,-618,-441,1617,-617,-589,111
1783350005456,-600,-488,1610,-618,-570,145
1783350005458,-589,-487,1561,-614,-582,126
1783350005460,-597,-467,1585,-625,-593,124
1783350005462,-592,-463,1594,-637,-564,130
1783350005464,-606,-479,1579,-629,-573,144
1783350005466,-602,-448,1607,-617,-584,149
1783350005468,-590,-466,1597,-607,-576,141
1783350005470,-609,-440,1567,-582,-553,148
1783350005472,-629,-480,1640,-617,-541,135
1783350005474,-622,-401,1581,-600,-568,133
1783350005476,-606,-446,1633,-599,-569,130
1783350005478,-609,-408,1608,-586,-547,137
1783350005480,-622,-404,1611,-591,-566,159
1783350005482,-573,-460,1570,-604,-560,126
1783350005484,-577,-405,1618,-596,-536,133
1783350005486,-601,-409,1586,-587,-553,147
1783350005488,-591,-418,1613,-581,-551,146
1783350005490,-599,-443,1652,-575,-530,141
1783350005492,-592,-404,1625,-583,-545,142
1783350005494,-618,-421,1590,-572,-541,148
1783350005496,-548,-374,1610,-569,-538,156
1783350005498,-558,-390,1641,-574,-526,165
1783350005500,-563,-363,1656,-579,-522,148
1783350005502,-614,-388,1628,-555,-506,163
1783350005504,-518,-405,1615,-593,-525,160
1783350005506,-590,-441,1617,-567,-534,172
1783350005508,-538,-353,1632,-557,-517,167
1783350005510,-611,-360,1664,-574,-506,171
1783350005512,-585,-401,1686,-570,-509,177
1783350005514,-578,-414,1614,-568,-490,171
1783350005516,-572,-419,1637,-550,-509,158
1783350005518,-572,-390,1630,-554,-496,168
1783350005520,-551,-347,1682,-550,-502,170
1783350005522,-524,-339,1657,-548,-510,152
1783350005524,-579,-371,1636,-560,-490,139
1783350005526,-560,-411,1664,-540,-491,168
1783350005528,-513,-358,1659,-544,-498,175
1783350005530,-532,-361,1635,-545,-473,171
1783350005532,-553,-358,1655,-530,-461,161
1783350005534,-506,-314,1675,-534,-480,162
1783350005536,-572,-342,1627,-542,-490,177
1783350005538,-501,-374,1672,-512,-462,160
1783350005540,-523,-341,1677,-521,-472,167
1783350005542,-540,-375,1637,-526,-454,155
1783350005544,-496,-352,1617,-522,-464,165
1783350005546,-507,-353,1629,-522,-460,196
1783350005548,-520,-355,1715,-498,-454,158
1783350005550,-501,-293,1678,-515,-452,170
1783350005552,-463,-319,1612,-494,-437,155
1783350005554,-499,-348,1710,-508,-426,167
1783350005556,-567,-354,1730,-487,-437,165
1783350005558,-502,-318,1693,-503,-436,148
1783350005560,-490,-362,1667,-486,-422,164
1783350005562,-459,-326,1685,-508,-440,159
1783350005564,-465,-289,1673,-476,-401,155
1783350005566,-462,-300,1678,-453,-421,142
1783350005568,-473,-262,1683,-472,-395,181
1783350005570,-503,-304,1687,-469,-409,163
1783350005572,-428,-269,1725,-476,-410,174
1783350005574,-423,-340,1747,-447,-407,170
1783350005576,-429,-335,1704,-465,-399,164
1783350005578,-462,-301,1681,-450,-410,150
1783350005580,-446,-251,1736,-442,-392,154
1783350005582,-438,-234,1715,-433,-390,148
1783350005584,-452,-267,1734,-447,-368,169
1783350005586,-416,-281,1709,-434,-372,159
1783350005588,-454,-285,1694,-420,-396,158
1783350005590,-464,-293,1749,-442,-366,145
1783350005592,-373,-290,1726,-407,-379,150
1783350005594,-434,-290,1727,-419,-363,145
1783350005596,-407,-289,1765,-410,-378,143
1783350005598,-431,-238,1761,-406,-361,139
1783350005600,-396,-264,1730,-412,-353,142
1783350005602,-379,-212,1723,-383,-350,135
1783350005604,-374,-251,1749,-402,-343,126
1783350005606,-402,-242,1765,-388,-344,130
1783350005608,-391,-254,1757,-382,-345,136
1783350005610,-332,-258,1773,-371,-333,139
1783350005612,-373,-254,1799,-385,-327,157
1783350005614,-412,-217,1818,-362,-337,134
1783350005616,-364,-236,1727,-370,-329,143
1783350005618,-396,-237,1770,-356,-299,152
1783350005620,-394,-153,1728,-368,-324,139
1783350005622,-324,-228,1788,-368,-297,122
1783350005624,-331,-187,1755,-330,-300,122
1783350005626,-311,-182,1755,-327,-300,135
1783350005628,-327,-194,1838,-330,-300,144
1783350005630,-357,-225,1789,-325,-272,135
1783350005632,-339,-182,1805,-318,-286,130
1783350005634,-361,-206,1822,-321,-280,115
1783350005636,-380,-233,1847,-293,-295,118
1783350005638,-304,-174,1880,-312,-276,114
1783350005640,-332,-236,1758,-284,-250,133
1783350005642,-286,-200,1809,-304,-258,133
1783350005644,-277,-199,1802,-293,-240,101
1783350005646,-281,-185,1832,-293,-262,126
1783350005648,-353,-211,1825,-282,-229,105
1783350005650,-229,-164,1834,-274,-252,106
1783350005652,-227,-169,1861,-263,-238,120
1783350005654,-258,-141,1825,-261,-227,109
1783350005656,-269,-172,1867,-266,-232,111
1783350005658,-241,-165,1878,-253,-215,115
1783350005660,-262,-172,1828,-268,-229,101
1783350005662,-245,-164,1857,-242,-210,120
1783350005664,-237,-146,1906,-249,-209,102
1783350005666,-245,-133,1885,-244,-203,92
1783350005668,-213,-142,1883,-231,-207,92
1783350005670,-237,-150,1879,-235,-192,117
1783350005672,-203,-156,1859,-211,-194,99
1783350005674,-196,-157,1896,-212,-177,106
1783350005676,-160,-136,1837,-222,-185,87
1783350005678,-222,-144,1852,-196,-174,74
1783350005680,-212,-162,1901,-192,-165,98
1783350005682,-199,-129,1906,-183,-160,92
1783350005684,-151,-85,1934,-190,-153,63
1783350005686,-202,-80,1901,-198,-169,90
1783350005688,-152,-113,1947,-168,-155,86
1783350005690,-201,-94,1885,-168,-153,77
1783350005692,-160,-92,1939,-168,-153,76
1783350005694,-113,-117,1939,-161,-128,71
1783350005696,-130,-116,1916,-146,-141,80
1783350005698,-106,-113,1939,-157,-134,71
1783350005700,-146,-82,1986,-144,-134,66
1783350005702,-121,-44,1987,-133,-122,41
1783350005704,-162,-76,1968,-126,-113,50
1783350005706,-75,-103,1957,-127,-103,64
1783350005708,-135,-56,1977,-136,-109,67
1783350005710,-101,-67,1941,-99,-105,57
1783350005712,-101,-58,1954,-120,-105,49
1783350005714,-130,-69,1934,-109,-69,43
1783350005716,-86,-103,1973,-81,-93,25
1783350005718,-102,-29,1942,-96,-84,20
1783350005720,-93,-63,1992,-88,-65,23
1783350005722,-99,-25,1992,-81,-77,34
1783350005724,-64,-57,2039,-81,-58,21
1783350005726,-3,-14,2020,-79,-43,30
1783350005728,-95,-68,2020,-67,-50,20
1783350005730,-30,-26,1960,-39,-53,28
1783350005732,-60,-72,2013,-52,-36,18
1783350005734,-31,1,2034,-45,-20,21
1783350005736,-64,-35,1987,-40,-41,29
1783350005738,-57,-19,2023,-30,-15,9
1783350005740,-14,-68,2072,-40,-23,17
1783350005742,-6,-23,2006,-40,-16,15
1783350005744,-1,-2,2019,-16,-13,10
1783350005746,-44,-2,2064,-25,-1,2
1783350005748,14,12,2054,-26,-14,-16
1783350005750,-8,11,2064,17,10,3
1783350005752,-36,-56,2061,4,1,-14
1783350005754,-32,-32,2036,21,-10,2
1783350005756,52,12,2071,-4,-3,-19
1783350005758,20,36,2059,41,20,-4
1783350005760,67,10,2075,28,9,-12
1783350005762,19,36,2083,47,51,-21
1783350005764,34,-6,2077,47,23,-15
1783350005766,37,24,2120,34,46,-20
1783350005768,14,66,2098,57,55,-17
1783350005770,16,64,2064,61,51,-25
1783350005772,18,50,2103,61,38,-19
1783350005774,17,50,2070,79,58,-41
1783350005776,76,22,2087,68,62,-28
1783350005778,29,23,2138,80,69,-38
1783350005780,48,78,2071,89,69,-33
1783350005782,89,49,2081,85,66,-38
1783350005784,98,28,2127,77,96,-27
1783350005786,108,75,2085,89,83,-53
1783350005788,128,16,2120,93,95,-53
1783350005790,85,64,2105,91,107,-48
1783350005792,113,79,2152,103,102,-44
1783350005794,125,126,2199,122,120,-47
1783350005796,95,90,2114,134,116,-45
1783350005798,105,99,2128,142,134,-55
1783350005800,147,38,2147,142,128,-62
1783350005802,151,95,2168,129,127,-49
1783350005804,121,108,2125,146,123,-72
1783350005806,159,105,2108,136,141,-62
1783350005808,125,127,2157,173,146,-63
1783350005810,176,78,2165,167,154,-66
1783350005812,140,98,2195,165,140,-73
1783350005814,139,84,2191,183,155,-81
1783350005816,208,152,2141,185,180,-84
1783350005818,172,126,2199,192,186,-76
1783350005820,236,146,2214,200,162,-82
1783350005822,207,108,2219,190,163,-77
1783350005824,206,87,2159,203,170,-77
1783350005826,193,144,2211,203,193,-95
1783350005828,215,129,2217,216,178,-82
1783350005830,266,180,2192,209,207,-94
1783350005832,258,122,2200,204,210,-77
1783350005834,209,147,2177,216,193,-97
1783350005836,252,150,2202,225,213,-97
1783350005838,213,123,2216,239,223,-80
1783350005840,310,174,2234,236,227,-104
1783350005842,249,136,2244,259,217,-92
1783350005844,277,222,2219,254,222,-110
1783350005846,272,137,2209,256,230,-91
1783350005848,316,171,2271,238,235,-103
1783350005850,236,154,2251,268,227,-91
1783350005852,204,239,2247,271,248,-124
1783350005854,260,156,2260,283,247,-97
1783350005856,284,170,2261,276,254,-106
1783350005858,306,206,2224,282,253,-130
1783350005860,269,163,2253,298,259,-110
1783350005862,273,158,2268,300,254,-142
1783350005864,254,148,2263,297,266,-113
1783350005866,310,246,2283,304,277,-110
1783350005868,318,194,2311,293,271,-150
1783350005870,336,244,2307,306,285,-126
1783350005872,324,167,2327,301,289,-121
1783350005874,340,209,2265,317,301,-130
1783350005876,357,206,2258,322,291,-136
1783350005878,378,250,2279,325,312,-142
1783350005880,363,258,2325,335,296,-135
1783350005882,344,237,2317,356,305,-138
1783350005884,352,265,2285,343,347,-149
1783350005886,363,225,2300,350,324,-139
1783350005888,320,233,2319,338,307,-157
1783350005890,320,280,2344,359,330,-147
1783350005892,359,249,2288,355,333,-142
1783350005894,387,281,2322,365,321,-147
1783350005896,368,277,2350,350,346,-150
1783350005898,359,244,2322,356,341,-147
1783350005900,422,276,2358,375,342,-159
1783350005902,361,221,2302,376,351,-150
1783350005904,393,255,2351,355,356,-168
1783350005906,320,251,2348,401,363,-155
1783350005908,381,262,2278,383,363,-172
1783350005910,356,270,2303,390,375,-143
1783350005912,410,258,2387,383,369,-167
1783350005914,435,281,2359,396,390,-150
1783350005916,403,286,2304,394,399,-144
1783350005918,366,287,2319,392,388,-156
1783350005920,388,252,2334,400,386,-151
1783350005922,409,262,2351,407,391,-171
1783350005924,398,309,2355,416,390,-140
1783350005926,365,280,2388,414,411,-153
1783350005928,450,285,2360,423,391,-135
1783350005930,408,293,2371,428,427,-150
1783350005932,459,288,2322,423,400,-150
1783350005934,421,288,2328,437,416,-147
1783350005936,412,326,2400,430,425,-159
1783350005938,452,293,2386,443,423,-150
1783350005940,418,293,2418,422,428,-163
1783350005942,398,329,2418,422,441,-167
1783350005944,470,275,2387,451,463,-170
1783350005946,474,299,2366,441,451,-155
1783350005948,427,277,2373,451,436,-162
1783350005950,468,304,2398,449,441,-156
1783350005952,447,319,2384,445,458,-160
1783350005954,439,312,2388,460,475,-180
1783350005956,443,322,2443,449,459,-182
1783350005958,448,305,2431,454,467,-158
1783350005960,479,311,2362,450,480,-147
1783350005962,467,350,2399,455,453,-169
1783350005964,472,345,2411,456,473,-169
1783350005966,450,326,2440,473,491,-170
1783350005968,512,336,2398,459,492,-154
1783350005970,459,323,2417,476,490,-163
1783350005972,569,316,2402,463,500,-168
1783350005974,467,332,2411,466,494,-162
1783350005976,448,330,2360,504,495,-190
1783350005978,465,329,2442,476,494,-167
1783350005980,451,280,2386,475,495,-168
1783350005982,493,347,2379,499,495,-165
1783350005984,511,382,2387,473,501,-157
1783350005986,501,347,2452,477,507,-183
1783350005988,447,347,2423,478,533,-169
1783350005990,498,323,2422,475,519,-148
1783350005992,465,367,2371,495,529,-155
1783350005994,436,362,2393,495,518,-170
1783350005996,491,339,2444,495,525,-171
1783350005998,503,359,2441,497,537,-149
1783350006000,484,369,2411,496,538,-144
1783350006002,452,361,2406,507,535,-176
1783350006004,520,390,2423,519,552,-179
1783350006006,518,375,2402,506,535,-135
1783350006008,506,340,2395,502,547,-158
1783350006010,544,358,2383,495,531,-161
1783350006012,497,412,2402,491,530,-149
1783350006014,548,397,2422,489,540,-137
1783350006016,491,334,2455,507,547,-144
1783350006018,505,360,2459,496,541,-153
1783350006020,457,387,2487,509,536,-141
1783350006022,540,403,2447,517,578,-157
1783350006024,507,384,2418,502,569,-139
1783350006026,490,417,2387,524,578,-129
1783350006028,552,364,2419,502,580,-126
1783350006030,491,327,2418,509,578,-137
1783350006032,497,413,2434,500,570,-138
1783350006034,544,352,2404,515,574,-141
1783350006036,513,451,2452,519,556,-146
1783350006038,520,402,2419,513,560,-126
1783350006040,506,415,2393,530,589,-120
1783350006042,502,411,2494,501,576,-138
1783350006044,527,449,2456,499,586,-138
1783350006046,482,357,2463,520,581,-124
1783350006048,524,431,2442,503,592,-118
1783350006050,537,441,2405,527,595,-132
1783350006052,488,466,2402,531,602,-138
1783350006054,491,383,2432,517,610,-125
1783350006056,516,417,2483,514,586,-136
1783350006058,543,406,2445,520,590,-123
1783350006060,465,371,2444,499,594,-124
1783350006062,506,440,2420,513,600,-120
1783350006064,518,407,2485,519,609,-98
1783350006066,543,435,2406,513,618,-112
1783350006068,526,435,2441,504,601,-122
1783350006070,499,457,2444,502,613,-116
1783350006072,517,398,2408,520,596,-111
1783350006074,505,413,2456,498,619,-129
1783350006076,484,472,2448,522,619,-89
1783350006078,533,415,2457,516,609,-116
1783350006080,509,412,2427,506,618,-79
1783350006082,507,414,2442,490,622,-113
1783350006084,505,411,2440,507,640,-87
1783350006086,459,441,2441,493,607,-81
1783350006088,449,448,2411,511,623,-85
1783350006090,476,460,2422,497,640,-89
1783350006092,466,413,2415,520,618,-90
1783350006094,482,398,2419,493,626,-77
1783350006096,457,425,2382,504,648,-87
1783350006098,537,435,2426,484,630,-87
1783350006100,502,417,2416,494,635,-62
1783350006102,527,445,2468,500,625,-51
1783350006104,476,431,2433,505,639,-61
1783350006106,521,450,2393,500,637,-66
1783350006108,496,472,2395,492,623,-71
1783350006110,492,436,2389,492,646,-63
1783350006112,519,400,2422,475,650,-63
1783350006114,494,451,2421,474,645,-65
1783350006116,544,421,2407,479,636,-71
1783350006118,479,441,2403,478,661,-62
1783350006120,518,466,2380,497,639,-46
1783350006122,462,468,2436,477,642,-63
1783350006124,466,419,2425,463,648,-23
1783350006126,455,434,2404,477,645,-61
1783350006128,490,475,2362,466,650,-55
1783350006130,490,434,2446,476,655,-45
1783350006132,415,425,2407,492,644,-48
1783350006134,454,446,2409,454,643,-37
1783350006136,438,473,2391,467,641,-48
1783350006138,498,444,2405,452,667,-30
1783350006140,455,452,2402,449,643,-30
1783350006142,473,406,2405,463,650,-31
1783350006144,479,443,2376,461,658,-18
1783350006146,498,422,2394,477,654,-30
1783350006148,409,444,2377,439,649,-11
1783350006150,440,481,2382,455,647,-8
1783350006152,472,431,2350,436,629,-16
1783350006154,493,441,2367,456,669,-6
1783350006156,428,423,2370,438,646,-16
1783350006158,465,454,2394,442,684,-4
1783350006160,420,418,2405,454,657,-6
1783350006162,443,428,2372,423,636,-18
1783350006164,473,467,2364,440,645,10
1783350006166,412,439,2366,438,668,3
1783350006168,426,397,2342,435,650,-3
1783350006170,416,438,2374,435,640,16
1783350006172,469,463,2424,420,654,1
1783350006174,415,397,2336,413,675,20
1783350006176,408,467,2354,425,667,1
1783350006178,416,430,2348,417,642,6
1783350006180,437,412,2334,398,644,16
1783350006182,398,382,2368,392,662,10
1783350006184,380,414,2337,412,661,18
1783350006186,418,485,2363,400,673,13
1783350006188,413,387,2351,400,651,24
1783350006190,397,432,2381,428,647,33
1783350006192,375,458,2358,393,645,18
1783350006194,392,451,2341,393,652,16
1783350006196,396,406,2360,380,652,42
1783350006198,403,446,2370,376,635,41
1783350006200,395,425,2329,389,664,35
1783350006202,390,474,2377,373,651,49
1783350006204,333,432,2322,386,645,33
1783350006206,373,470,2291,389,649,58
1783350006208,397,407,2313,364,649,40
1783350006210,307,411,2343,365,657,62
1783350006212,353,451,2321,349,631,60
1783350006214,343,442,2334,353,633,67
1783350006216,329,436,2291,346,665,60
1783350006218,354,490,2268,349,651,69
1783350006220,345,471,2356,347,649,59
1783350006222,295,402,2321,345,632,58
1783350006224,317,428,2308,342,661,68
1783350006226,342,445,2270,325,619,85
1783350006228,337,444,2283,323,636,85
1783350006230,357,438,2335,324,639,92
1783350006232,287,416,2290,318,616,89
1783350006234,305,461,2296,328,621,67
1783350006236,307,455,2288,304,636,59
1783350006238,306,405,2227,303,630,87
1783350006240,326,397,2311,314,640,94
1783350006242,293,416,2263,314,628,86
1783350006244,269,455,2247,303,612,93
1783350006246,305,368,2299,291,648,74
1783350006248,302,373,2287,284,624,100
1783350006250,282,415,2277,289,593,104
1783350006252,251,437,2250,293,603,91
1783350006254,283,428,2224,275,618,104
1783350006256,259,450,2229,267,632,94
1783350006258,300,466,2269,265,603,112
1783350006260,285,407,2273,253,626,100
1783350006262,268,456,2293,263,615,120
1783350006264,262,383,2219,261,604,110
1783350006266,243,393,2241,252,608,119
1783350006268,241,385,2247,247,612,122
1783350006270,273,365,2219,233,593,111
1783350006272,246,418,2190,240,590,134
1783350006274,213,368,2232,228,597,114
1783350006276,219,393,2245,238,609,118
1783350006278,232,379,2219,223,595,111
1783350006280,247,390,2227,222,608,122
1783350006282,213,403,2223,230,588,131
1783350006284,219,422,2269,215,598,117
1783350006286,187,385,2194,205,575,138
1783350006288,190,430,2227,216,599,135
1783350006290,250,378,2209,203,598,140
1783350006292,153,329,2238,181,567,129
1783350006294,199,383,2177,186,580,143
1783350006296,196,379,2180,185,583,135
